sep=,
Measurement Mode:,Complete (Euler)
StartTime:,Sat, 12 Mar 2022 16:27:44 GMT
© Xsens Technologies B. V. 2005-2022

Timestamp,Address,Euler_x,Euler_y,Euler_z,FreeAcc_x,FreeAcc_y,FreeAcc_z
118242061414.0334,d4:ca:6e:f1:72:6c,-1.3348714113235474,-0.11234141886234283,179.45291137695312,-0.027868090197443962,-0.03776657581329346,-0.02204418182373047
118242070872.3,d4:ca:6e:f1:72:6c,-1.3363440036773682,-0.11184696108102798,179.4644317626953,-0.02521025389432907,-0.047251105308532715,-0.009478569030761719
118242087542.6334,d4:ca:6e:f1:72:6c,-1.3360780477523804,-0.11155285686254501,179.47535705566406,-0.019969137385487556,-0.02965979278087616,-0.014074325561523438
118242100098.8,d4:ca:6e:f1:72:6c,-1.3354328870773315,-0.11150906980037689,179.48609924316406,-0.014696930535137653,-0.008482386358082294,-0.01511383056640625
118242116769.1334,d4:ca:6e:f1:72:6c,-1.3344780206680298,-0.11129497736692429,179.4977264404297,-0.013707021251320839,-0.006938575301319361,-0.006829261779785156
118242133439.46681,d4:ca:6e:f1:72:6c,-1.3351142406463623,-0.11212645471096039,179.509033203125,-0.0023388622794300318,0.0108691630885005,0.0022249221801757812
118242150109.80022,d4:ca:6e:f1:72:6c,-1.3360774517059326,-0.11116763204336166,179.51869201660156,-0.012145654298365116,0.007771922741085291,-0.03050518035888672
118242166780.13362,d4:ca:6e:f1:72:6c,-1.3363267183303833,-0.11068063229322433,179.52789306640625,-0.022056391462683678,0.00015786364383529872,-0.01404571533203125
118242183450.46703,d4:ca:6e:f1:72:6c,-1.3376595973968506,-0.11048086732625961,179.53746032714844,-0.018392112106084824,-0.02926153689622879,-0.016732215881347656
118242200120.80043,d4:ca:6e:f1:72:6c,-1.3381510972976685,-0.11030537635087967,179.54710388183594,-0.022325849160552025,-0.03375134989619255,-0.010382652282714844
118242216791.13383,d4:ca:6e:f1:72:6c,-1.3376957178115845,-0.1093040183186531,179.55740356445312,-0.03280031308531761,-0.03862909972667694,-0.023972511291503906
118242233461.46724,d4:ca:6e:f1:72:6c,-1.3369446992874146,-0.10879514366388321,179.5692138671875,-0.010497305542230606,-0.028741760179400444,-0.016805648803710938
118242250131.80064,d4:ca:6e:f1:72:6c,-1.3370590209960938,-0.10713532567024231,179.580078125,-0.01849011331796646,-0.01800837554037571,-0.01270294189453125
118242266802.13405,d4:ca:6e:f1:72:6c,-1.3370766639709473,-0.1074017807841301,179.591064453125,-0.01854120008647442,-0.003975867759436369,-0.023433685302734375
118242283472.46745,d4:ca:6e:f1:72:6c,-1.3367938995361328,-0.10707858204841614,179.60153198242188,-0.024227861315011978,0.006331542506814003,0.0020475387573242188
118242300142.80086,d4:ca:6e:f1:72:6c,-1.3367756605148315,-0.10810790210962296,179.61044311523438,-0.005229403730481863,0.014415431767702103,-0.025650978088378906
118242316813.13426,d4:ca:6e:f1:72:6c,-1.3373600244522095,-0.1082841232419014,179.62046813964844,-0.020317213609814644,-0.014518661424517632,-0.015108108520507812
118242333483.46767,d4:ca:6e:f1:72:6c,-1.3371809720993042,-0.10854091495275497,179.62991333007812,-0.0313090905547142,-0.024723656475543976,-0.010919570922851562
118242350153.80107,d4:ca:6e:f1:72:6c,-1.336121678352356,-0.10773014277219772,179.6403045654297,-0.020595818758010864,-0.03343505039811134,-0.0054264068603515625
118242366824.13448,d4:ca:6e:f1:72:6c,-1.337896466255188,-0.10791804641485214,179.65179443359375,-0.019352804869413376,-0.05159645900130272,-0.013800621032714844
118242383494.46788,d4:ca:6e:f1:72:6c,-1.337080955505371,-0.10915077477693558,179.66326904296875,-0.012519932352006435,-0.038738179951906204,-0.010289192199707031
118242400121.799,d4:ca:6e:f1:72:6c,-1.3372880220413208,-0.10975625365972519,179.67465209960938,-0.0018291313899680972,-0.031169719994068146,-0.012449264526367188
118242416792.1324,d4:ca:6e:f1:72:6c,-1.33635413646698,-0.10907705873250961,179.6863555908203,-0.007670844905078411,-0.015634167939424515,-0.013906478881835938
118242433462.4658,d4:ca:6e:f1:72:6c,-1.3361704349517822,-0.10866624116897583,179.69744873046875,-0.02042097970843315,-0.016527606174349785,-0.014574050903320312
118242450132.79921,d4:ca:6e:f1:72:6c,-1.3366355895996094,-0.10930343717336655,179.70875549316406,-0.020167790353298187,-0.012273665517568588,-0.015786170959472656
118242466803.13261,d4:ca:6e:f1:72:6c,-1.3367557525634766,-0.10867457091808319,179.71902465820312,-0.005768381059169769,-0.003486201399937272,-0.020150184631347656
118242483473.46602,d4:ca:6e:f1:72:6c,-1.335736870765686,-0.10873101651668549,179.72862243652344,-0.01670428365468979,0.02581510879099369,-0.0017547607421875
118242500143.79942,d4:ca:6e:f1:72:6c,-1.3372726440429688,-0.10828465968370438,179.73675537109375,-0.010977854020893574,0.013767268508672714,-0.004010200500488281
118242516814.13283,d4:ca:6e:f1:72:6c,-1.3378130197525024,-0.1072792112827301,179.74452209472656,-0.00778962904587388,-0.007243054918944836,0.00031948089599609375
118242533484.46623,d4:ca:6e:f1:72:6c,-1.3389531373977661,-0.10726815462112427,179.7523956298828,-0.0203897375613451,-0.021196424961090088,-0.031958580017089844
118242550014,d4:ca:6e:f1:72:6c,-1.3401204347610474,-0.1074899360537529,179.75933837890625,-0.03212832286953926,-0.04536131024360657,-0.011859893798828125
118242566684.3334,d4:ca:6e:f1:72:6c,-1.3404147624969482,-0.10841388255357742,179.76881408691406,-0.017766073346138,-0.046235665678977966,-0.004593849182128906
118242583354.66681,d4:ca:6e:f1:72:6c,-1.3422690629959106,-0.10796806216239929,179.7800750732422,-0.010968915186822414,-0.052573997527360916,-0.0056247711181640625
118242600025.00021,d4:ca:6e:f1:72:6c,-1.3425014019012451,-0.10768856853246689,179.79135131835938,-0.006221441552042961,-0.025062570348381996,-0.006716728210449219
118242616695.33362,d4:ca:6e:f1:72:6c,-1.3427584171295166,-0.10710690170526505,179.80154418945312,-0.020675692707300186,-0.011806434951722622,-0.011038780212402344
118242633365.66702,d4:ca:6e:f1:72:6c,-1.342306137084961,-0.10746560245752335,179.81207275390625,0.0007718197884969413,0.0015824337024241686,-0.01945972442626953
118242650036.00043,d4:ca:6e:f1:72:6c,-1.342749834060669,-0.10925115644931793,179.82135009765625,0.00039314592140726745,-0.021117210388183594,-0.01982593536376953
118242666706.33383,d4:ca:6e:f1:72:6c,-1.3408271074295044,-0.11041158437728882,179.8310089111328,-0.01222444511950016,-0.016008302569389343,-0.0029115676879882812
118242683376.66724,d4:ca:6e:f1:72:6c,-1.3406267166137695,-0.1099880188703537,179.84109497070312,-0.015926318243145943,-0.022403771057724953,-0.03647899627685547
118242700047.00064,d4:ca:6e:f1:72:6c,-1.3398022651672363,-0.10995341092348099,179.850341796875,-0.022520262748003006,-0.005364926531910896,-0.0008907318115234375
118242716717.33405,d4:ca:6e:f1:72:6c,-1.3383171558380127,-0.10962097346782684,179.85931396484375,-0.008382851257920265,-0.01855866052210331,-0.0135498046875
118242733387.66745,d4:ca:6e:f1:72:6c,-1.339302897453308,-0.11005740612745285,179.8675994873047,-0.012835700996220112,-0.011502349749207497,-0.013375282287597656
118242750058.00085,d4:ca:6e:f1:72:6c,-1.3387229442596436,-0.1110103502869606,179.87623596191406,-0.04099876061081886,-0.010380376130342484,-0.009968757629394531
118242766728.33426,d4:ca:6e:f1:72:6c,-1.3366425037384033,-0.11109405010938644,179.88424682617188,-0.022630440071225166,-0.004526251927018166,-0.01422882080078125
118242783398.66766,d4:ca:6e:f1:72:6c,-1.3364876508712769,-0.11163006722927094,179.8931121826172,-0.024033252149820328,-0.016028618440032005,-0.0179290771484375
118242800069.00107,d4:ca:6e:f1:72:6c,-1.3364951610565186,-0.11080046743154526,179.90237426757812,-0.026603467762470245,-0.012131784111261368,0.0003719329833984375
118242816739.33447,d4:ca:6e:f1:72:6c,-1.3364886045455933,-0.11123508960008621,179.91127014160156,-0.028051821514964104,-0.04698654264211655,0.00555419921875
118242833409.66788,d4:ca:6e:f1:72:6c,-1.3358142375946045,-0.11134832352399826,179.92166137695312,-0.010725368745625019,-0.05694013088941574,-0.034325599670410156
118242849703.899,d4:ca:6e:f1:72:6c,-1.3365520238876343,-0.11086496710777283,179.93276977539062,-0.024662591516971588,-0.030775494873523712,-0.0076580047607421875
118242866374.2324,d4:ca:6e:f1:72:6c,-1.335710048675537,-0.10953586548566818,179.944580078125,-0.01329033449292183,-0.0016684617148712277,0.025247573852539062
118242883044.56581,d4:ca:6e:f1:72:6c,-1.3362959623336792,-0.11050641536712646,179.95578002929688,-0.017966298386454582,0.015400775708258152,-0.010919570922851562
118242899714.89922,d4:ca:6e:f1:72:6c,-1.3369325399398804,-0.11090296506881714,179.9656982421875,-0.029810819774866104,0.0003489416267257184,-0.015300750732421875
118242916385.23262,d4:ca:6e:f1:72:6c,-1.3369024991989136,-0.11080756783485413,179.9762420654297,-0.008915597572922707,0.0035697664134204388,-0.0071735382080078125
118242933055.56602,d4:ca:6e:f1:72:6c,-1.3358649015426636,-0.11127343773841858,179.98513793945312,-0.022043511271476746,-0.019013985991477966,-0.02129077911376953
118242949725.89943,d4:ca:6e:f1:72:6c,-1.3362914323806763,-0.11165326833724976,179.9938507080078,-0.02564493753015995,-0.022143924608826637,-0.03572654724121094
118242966396.23283,d4:ca:6e:f1:72:6c,-1.3371590375900269,-0.1115279421210289,-179.9971160888672,-0.02618258260190487,-0.04296405613422394,0.008722305297851562
118242983066.56624,d4:ca:6e:f1:72:6c,-1.3372336626052856,-0.11153249442577362,-179.9873809814453,-0.024465303868055344,-0.03207198157906532,-0.01619243621826172
118242999736.89964,d4:ca:6e:f1:72:6c,-1.337047815322876,-0.11139536648988724,-179.97662353515625,-0.01587950997054577,-0.014042037539184093,-0.019504547119140625
118243016407.23305,d4:ca:6e:f1:72:6c,-1.3369626998901367,-0.11095259338617325,-179.96517944335938,-0.009889214299619198,-0.0359513983130455,-0.004263877868652344
118243033077.56645,d4:ca:6e:f1:72:6c,-1.3354263305664062,-0.11120620369911194,-179.95382690429688,-0.015003925189375877,-0.018962368369102478,-0.026575088500976562
118243049747.89986,d4:ca:6e:f1:72:6c,-1.3350962400436401,-0.1103878989815712,-179.94236755371094,-0.019177203997969627,-0.003967538475990295,-0.00588226318359375
118243066418.23326,d4:ca:6e:f1:72:6c,-1.3352020978927612,-0.11016647517681122,-179.9322509765625,-0.01433535385876894,0.010534603148698807,-0.011412620544433594
118243083088.56667,d4:ca:6e:f1:72:6c,-1.3365534543991089,-0.10948234796524048,-179.92269897460938,-0.007902687415480614,-0.007787331938743591,0.01039886474609375
118243099758.90007,d4:ca:6e:f1:72:6c,-1.3363856077194214,-0.11072029173374176,-179.912353515625,-0.00934565905481577,-0.026837337762117386,0.006066322326660156
118243116429.23347,d4:ca:6e:f1:72:6c,-1.33620285987854,-0.11095061153173447,-179.90078735351562,-0.016712598502635956,-0.03861190751194954,-0.03379058837890625
118243133099.56688,d4:ca:6e:f1:72:6c,-1.3364148139953613,-0.11115781962871552,-179.8900146484375,-0.02616705745458603,-0.02993670664727688,-0.015043258666992188
118243149769.90028,d4:ca:6e:f1:72:6c,-1.3360239267349243,-0.11110568046569824,-179.8784637451172,-0.02114286459982395,-0.008071309886872768,-0.0016040802001953125
118243166440.23369,d4:ca:6e:f1:72:6c,-1.3355199098587036,-0.11135765165090561,-179.86851501464844,-0.017998825758695602,-0.011363131925463676,-0.006735801696777344
118243183110.5671,d4:ca:6e:f1:72:6c,-1.3362007141113281,-0.11115912348031998,-179.85842895507812,-0.009233137592673302,-0.00979215931147337,-0.018764495849609375
118243199780.9005,d4:ca:6e:f1:72:6c,-1.3360260725021362,-0.11198543757200241,-179.8484649658203,0.0001832275156630203,-0.000024003806174732745,-0.0025501251220703125
118243216451.2339,d4:ca:6e:f1:72:6c,-1.3355742692947388,-0.11129255592823029,-179.83973693847656,-0.018452128395438194,-0.008176160044968128,-0.05091285705566406
118243233121.5673,d4:ca:6e:f1:72:6c,-1.3363958597183228,-0.11109157651662827,-179.8308868408203,-0.018929876387119293,-0.01013873890042305,-0.0039539337158203125
118243249791.90071,d4:ca:6e:f1:72:6c,-1.3369266986846924,-0.11087022721767426,-179.8221435546875,-0.009249990805983543,-0.041285399347543716,0.029737472534179688
118243266462.23412,d4:ca:6e:f1:72:6c,-1.3368041515350342,-0.10988098382949829,-179.8101043701172,0.0044188653118908405,-0.08847343921661377,-0.049790382385253906
118243283132.56752,d4:ca:6e:f1:72:6c,-1.3360453844070435,-0.10967139899730682,-179.79676818847656,-0.04060369357466698,-0.10166904330253601,0.008734703063964844
118243299802.90092,d4:ca:6e:f1:72:6c,-1.3350940942764282,-0.10946489870548248,-179.78079223632812,-0.021196380257606506,-0.05192316323518753,0.004033088684082031
118243316473.23433,d4:ca:6e:f1:72:6c,-1.3344290256500244,-0.10831906646490097,-179.76837158203125,-0.001106518437154591,0.010710774920880795,-0.030506134033203125
118243333143.56773,d4:ca:6e:f1:72:6c,-1.3359906673431396,-0.10752631723880768,-179.75672912597656,-0.00656611192971468,0.045851364731788635,0.013736724853515625
118243349813.90114,d4:ca:6e:f1:72:6c,-1.336363434791565,-0.10798908025026321,-179.74684143066406,-0.004009319934993982,0.07491209357976913,-0.02018451690673828
118243366484.23454,d4:ca:6e:f1:72:6c,-1.3363447189331055,-0.10878848284482956,-179.7386016845703,-0.009138926863670349,0.05266439914703369,-0.0037784576416015625
118243383154.56795,d4:ca:6e:f1:72:6c,-1.33535897731781,-0.10992896556854248,-179.73089599609375,-0.00953481625765562,0.01373151782900095,-0.004913330078125
118243399824.90135,d4:ca:6e:f1:72:6c,-1.3346272706985474,-0.11032112687826157,-179.72315979003906,-0.01877652481198311,-0.0488341823220253,-0.02244091033935547
118243416495.23476,d4:ca:6e:f1:72:6c,-1.3366676568984985,-0.11015556007623672,-179.71311950683594,-0.028844520449638367,-0.07660315185785294,-0.013919830322265625
118243433165.56816,d4:ca:6e:f1:72:6c,-1.336523413658142,-0.11075793206691742,-179.70172119140625,-0.010361525230109692,-0.08540838211774826,-0.010064125061035156
118243449835.90157,d4:ca:6e:f1:72:6c,-1.3359767198562622,-0.11061244457960129,-179.68951416015625,-0.023517847061157227,-0.04806568846106529,-0.010008811950683594
118243466506.23497,d4:ca:6e:f1:72:6c,-1.3366698026657104,-0.11179017275571823,-179.67713928222656,-0.01018054410815239,-0.017724961042404175,-0.009063720703125
118243483176.56837,d4:ca:6e:f1:72:6c,-1.337996006011963,-0.11137398332357407,-179.66473388671875,-0.01840019039809704,0.016981588676571846,-0.047496795654296875
118243499846.90178,d4:ca:6e:f1:72:6c,-1.3380376100540161,-0.1112680435180664,-179.654296875,-0.02955203503370285,0.021639617159962654,-0.03256416320800781
118243516517.23518,d4:ca:6e:f1:72:6c,-1.3358585834503174,-0.11056981235742569,-179.6435089111328,0.007400365546345711,0.0334617979824543,0.014684677124023438
118243533187.56859,d4:ca:6e:f1:72:6c,-1.3353937864303589,-0.11058607697486877,-179.6349639892578,0.0020372841972857714,-0.008932332508265972,-0.028016090393066406
118243549857.902,d4:ca:6e:f1:72:6c,-1.3359512090682983,-0.1101638674736023,-179.6249542236328,-0.03257058560848236,-0.050715185701847076,0.018817901611328125
118243566528.2354,d4:ca:6e:f1:72:6c,-1.3340202569961548,-0.1135619655251503,-179.6145477294922,-0.03685975819826126,-0.0646510049700737,0.08379840850830078
118243583198.5688,d4:ca:6e:f1:72:6c,-1.3282442092895508,-0.11928488314151764,-179.6018829345703,-0.020654834806919098,-0.03635028749704361,0.008116722106933594
118243599641.3,d4:ca:6e:f1:72:6c,-1.3213310241699219,-0.12762387096881866,-179.59104919433594,-0.02159140072762966,-0.00743718771263957,0.019727706909179688
118243616311.6334,d4:ca:6e:f1:72:6c,-1.312596082687378,-0.13701094686985016,-179.5793914794922,0.0020842081867158413,-0.01821257174015045,0.013622283935546875
118243632981.96681,d4:ca:6e:f1:72:6c,-1.308635950088501,-0.14259979128837585,-179.56626892089844,-0.007871231064200401,-0.07556809484958649,-0.16824817657470703
118243649652.30022,d4:ca:6e:f1:72:6c,-1.3103482723236084,-0.14367985725402832,-179.5551300048828,-0.01780398190021515,-0.030643504112958908,-0.06371021270751953
118243666322.63362,d4:ca:6e:f1:72:6c,-1.3100769519805908,-0.1431608945131302,-179.5428924560547,-0.018949715420603752,0.00212953332811594,0.05712413787841797
118243682992.96703,d4:ca:6e:f1:72:6c,-1.309457540512085,-0.1431204229593277,-179.53106689453125,-0.03243584185838699,0.012433281168341637,-0.06853675842285156
118243699663.30043,d4:ca:6e:f1:72:6c,-1.3095577955245972,-0.14304019510746002,-179.52020263671875,-0.03518962860107422,0.019075926393270493,-0.022932052612304688
118243716333.63383,d4:ca:6e:f1:72:6c,-1.3081777095794678,-0.1417953222990036,-179.51058959960938,0.000016471638446091674,0.02205304056406021,0.04717254638671875
118243733003.96724,d4:ca:6e:f1:72:6c,-1.3077974319458008,-0.14140596985816956,-179.50148010253906,0.003360372968018055,-0.005157623440027237,-0.07410526275634766
118243749674.30064,d4:ca:6e:f1:72:6c,-1.3091917037963867,-0.14194557070732117,-179.49359130859375,-0.04188549146056175,-0.01974918134510517,-0.0056514739990234375
118243766344.63405,d4:ca:6e:f1:72:6c,-1.3088417053222656,-0.14188693463802338,-179.4845428466797,-0.04241728037595749,-0.051092442125082016,0.026452064514160156
118243783014.96745,d4:ca:6e:f1:72:6c,-1.3078140020370483,-0.14205141365528107,-179.4739532470703,-0.009173431433737278,-0.05988593026995659,-0.057285308837890625
118243799685.30086,d4:ca:6e:f1:72:6c,-1.3097498416900635,-0.14192436635494232,-179.46192932128906,-0.01751331053674221,-0.04335278272628784,0.01847362518310547
118243816355.63426,d4:ca:6e:f1:72:6c,-1.307692527770996,-0.14380812644958496,-179.4498291015625,-0.022436462342739105,-0.02033030427992344,0.009012222290039062
118243833025.96767,d4:ca:6e:f1:72:6c,-1.3075259923934937,-0.14320935308933258,-179.43763732910156,-0.03005295805633068,0.007640984375029802,-0.059340476989746094
118243849696.30107,d4:ca:6e:f1:72:6c,-1.3078904151916504,-0.14331841468811035,-179.42727661132812,-0.011716272681951523,0.014331584796309471,0.01837635040283203
118243866366.63448,d4:ca:6e:f1:72:6c,-1.3067923784255981,-0.14410580694675446,-179.41610717773438,-0.018584439530968666,0.021288178861141205,-0.007918357849121094
118243883036.96788,d4:ca:6e:f1:72:6c,-1.3086720705032349,-0.1443968266248703,-179.4068145751953,-0.012982619926333427,0.004362107720226049,-0.03130626678466797
118243899707.30128,d4:ca:6e:f1:72:6c,-1.3087416887283325,-0.14439144730567932,-179.3987274169922,-0.024274365976452827,-0.0037282926496118307,0.012192726135253906
118243916377.63469,d4:ca:6e:f1:72:6c,-1.3103641271591187,-0.14487585425376892,-179.39007568359375,-0.0027089237701147795,-0.04068152606487274,-0.04222679138183594
118243933047.9681,d4:ca:6e:f1:72:6c,-1.311195969581604,-0.14508448541164398,-179.38018798828125,-0.021548759192228317,-0.04705143719911575,-0.031851768493652344
118243949718.3015,d4:ca:6e:f1:72:6c,-1.3107155561447144,-0.14557890594005585,-179.3685302734375,-0.0191477220505476,-0.03804522752761841,0.023778915405273438
118243966388.6349,d4:ca:6e:f1:72:6c,-1.310107707977295,-0.1448168009519577,-179.3569793701172,-0.010795743204653263,-0.032768018543720245,-0.02587890625
118243983058.9683,d4:ca:6e:f1:72:6c,-1.3103492259979248,-0.14430072903633118,-179.34632873535156,-0.004303597845137119,-0.007271547801792622,-0.010626792907714844
118243999729.30171,d4:ca:6e:f1:72:6c,-1.3119468688964844,-0.1448134034872055,-179.33554077148438,-0.025663573294878006,0.01524947676807642,0.014558792114257812
118244016399.63512,d4:ca:6e:f1:72:6c,-1.312416434288025,-0.14459921419620514,-179.32638549804688,-0.005693395622074604,-0.0004015534941572696,-0.04582500457763672
118244033069.96852,d4:ca:6e:f1:72:6c,-1.3126534223556519,-0.14434565603733063,-179.31878662109375,-0.02089298516511917,0.002218074630945921,0.00077056884765625
118244049684.799,d4:ca:6e:f1:72:6c,-1.3128104209899902,-0.14421367645263672,-179.30984497070312,-0.01978582888841629,-0.022811857983469963,-0.01683807373046875
118244066355.1324,d4:ca:6e:f1:72:6c,-1.3114806413650513,-0.14515899121761322,-179.3011932373047,-0.01811026781797409,-0.04132461175322533,-0.024618148803710938
118244083025.4658,d4:ca:6e:f1:72:6c,-1.3111919164657593,-0.14360901713371277,-179.29112243652344,-0.02298886328935623,-0.040749065577983856,0.0035533905029296875
118244099695.79921,d4:ca:6e:f1:72:6c,-1.3111428022384644,-0.14438708126544952,-179.28076171875,-0.03640568256378174,-0.04367176443338394,-0.011069297790527344
118244116366.13261,d4:ca:6e:f1:72:6c,-1.3117765188217163,-0.14361770451068878,-179.270263671875,-0.020804058760404587,-0.018332982435822487,-0.02981853485107422
118244133036.46602,d4:ca:6e:f1:72:6c,-1.3135534524917603,-0.14338935911655426,-179.25852966308594,-0.026545189321041107,-0.005060873460024595,0.012735366821289062
118244149706.79942,d4:ca:6e:f1:72:6c,-1.3134136199951172,-0.14278149604797363,-179.24853515625,-0.0053326780907809734,0.004759416915476322,-0.009792327880859375
118244166377.13283,d4:ca:6e:f1:72:6c,-1.3138750791549683,-0.1430225670337677,-179.238525390625,-0.009425358846783638,0.006530172191560268,-0.010493278503417969
118244183047.46623,d4:ca:6e:f1:72:6c,-1.3128541707992554,-0.14282964169979095,-179.22933959960938,-0.010149495676159859,0.005561875179409981,0.012035369873046875
118244199717.79964,d4:ca:6e:f1:72:6c,-1.3126646280288696,-0.14354293048381805,-179.21949768066406,-0.02248632162809372,-0.022636542096734047,-0.022225379943847656
118244216388.13304,d4:ca:6e:f1:72:6c,-1.3142849206924438,-0.14328046143054962,-179.2096710205078,-0.023332316428422928,-0.023817183449864388,-0.009612083435058594
118244233058.46645,d4:ca:6e:f1:72:6c,-1.3142168521881104,-0.14318791031837463,-179.19903564453125,-0.016042770817875862,-0.03875695914030075,0.003082275390625
118244249728.79985,d4:ca:6e:f1:72:6c,-1.3149802684783936,-0.1436038762331009,-179.1879119873047,-0.012215537950396538,-0.038543689996004105,-0.02066326141357422
118244266399.13326,d4:ca:6e:f1:72:6c,-1.3147411346435547,-0.14208121597766876,-179.17532348632812,-0.014732838608324528,-0.024118589237332344,-0.008710861206054688
118244283069.46666,d4:ca:6e:f1:72:6c,-1.3146333694458008,-0.1427677422761917,-179.16421508789062,-0.01875481940805912,-0.016473228111863136,-0.007876396179199219
118244299739.80006,d4:ca:6e:f1:72:6c,-1.3150012493133545,-0.14184994995594025,-179.15249633789062,-0.009243619628250599,0.0022435300052165985,-0.016605377197265625
118244316410.13347,d4:ca:6e:f1:72:6c,-1.3125388622283936,-0.14219260215759277,-179.1426544189453,-0.011815829202532768,0.006203284487128258,-0.0032911300659179688
118244333080.46687,d4:ca:6e:f1:72:6c,-1.3111947774887085,-0.1412673145532608,-179.1337890625,-0.005213659256696701,-0.0025455739814788103,0.0014324188232421875
118244349750.80028,d4:ca:6e:f1:72:6c,-1.3113611936569214,-0.14107100665569305,-179.12643432617188,-0.01321230549365282,-0.009713604114949703,-0.021065711975097656
118244366421.13368,d4:ca:6e:f1:72:6c,-1.3115708827972412,-0.14062760770320892,-179.11700439453125,-0.01967460662126541,-0.019823692739009857,-0.003383636474609375
118244383091.46709,d4:ca:6e:f1:72:6c,-1.3118499517440796,-0.14083844423294067,-179.107421875,-0.008105292916297913,-0.038133684545755386,-0.01780223846435547
118244399761.80049,d4:ca:6e:f1:72:6c,-1.3113808631896973,-0.1405293047428131,-179.09681701660156,-0.02068410813808441,-0.038174185901880264,-0.0178070068359375
118244416432.1339,d4:ca:6e:f1:72:6c,-1.309704065322876,-0.14086008071899414,-179.08541870117188,-0.015625109896063805,-0.0263868048787117,-0.0072154998779296875
118244433102.4673,d4:ca:6e:f1:72:6c,-1.3092397451400757,-0.14053088426589966,-179.07421875,-0.017308570444583893,-0.01129476074129343,-0.02265453338623047
118244449772.8007,d4:ca:6e:f1:72:6c,-1.3103125095367432,-0.1407506763935089,-179.064208984375,-0.020976275205612183,-0.0025783192832022905,-0.018215179443359375
118244466443.13411,d4:ca:6e:f1:72:6c,-1.309207797050476,-0.1402927190065384,-179.0542449951172,0.0033356361091136932,0.007188777439296246,-0.006134033203125
118244483113.46751,d4:ca:6e:f1:72:6c,-1.3088444471359253,-0.13948455452919006,-179.04360961914062,-0.020150238648056984,0.020183062180876732,-0.014918327331542969
118244499783.80092,d4:ca:6e:f1:72:6c,-1.3099273443222046,-0.13965760171413422,-179.0335693359375,-0.016459813341498375,-0.008086658082902431,0.0020313262939453125
118244516454.13432,d4:ca:6e:f1:72:6c,-1.3087843656539917,-0.13987310230731964,-179.02328491210938,-0.018205419182777405,-0.028999345377087593,-0.016036033630371094
118244533124.46773,d4:ca:6e:f1:72:6c,-1.3094615936279297,-0.13971158862113953,-179.01271057128906,-0.022089863196015358,-0.03799605742096901,-0.02011585235595703
118244549794.80113,d4:ca:6e:f1:72:6c,-1.3100616931915283,-0.13984981179237366,-179.00196838378906,-0.01956235058605671,-0.02598528191447258,0.0023355484008789062
118244566465.13454,d4:ca:6e:f1:72:6c,-1.3092577457427979,-0.13903120160102844,-178.99053955078125,-0.025828532874584198,-0.016768811270594597,-0.007884025573730469
118244583135.46794,d4:ca:6e:f1:72:6c,-1.3114081621170044,-0.1383652687072754,-178.97972106933594,-0.019782422110438347,-0.02237790822982788,-0.0048274993896484375
118244599805.80135,d4:ca:6e:f1:72:6c,-1.31040620803833,-0.1380494385957718,-178.96932983398438,-0.011218832805752754,0.0015791431069374084,-0.0030612945556640625
118244616476.13475,d4:ca:6e:f1:72:6c,-1.310823678970337,-0.13826119899749756,-178.95895385742188,-0.035507649183273315,0.00039790107985027134,-0.0095062255859375
118244633146.46815,d4:ca:6e:f1:72:6c,-1.3115800619125366,-0.13902804255485535,-178.9486083984375,-0.026037562638521194,0.0027981845196336508,-0.0069637298583984375
118244649816.80156,d4:ca:6e:f1:72:6c,-1.3112750053405762,-0.13938894867897034,-178.93832397460938,-0.026401657611131668,-0.010439461097121239,-0.014829635620117188
118244666487.13496,d4:ca:6e:f1:72:6c,-1.3115205764770508,-0.1391085386276245,-178.92852783203125,-0.007543012034147978,-0.02187786065042019,-0.03034210205078125
118244683157.46837,d4:ca:6e:f1:72:6c,-1.3124104738235474,-0.1395406275987625,-178.91795349121094,-0.026253946125507355,-0.03034350462257862,-0.0038480758666992188
118244699827.80177,d4:ca:6e:f1:72:6c,-1.3125495910644531,-0.13908851146697998,-178.90866088867188,-0.011314370669424534,-0.030381057411432266,-0.013657569885253906
118244716498.13518,d4:ca:6e:f1:72:6c,-1.3121986389160156,-0.13839292526245117,-178.8977508544922,-0.017476100474596024,-0.023301661014556885,-0.007355690002441406
118244733168.46858,d4:ca:6e:f1:72:6c,-1.3126873970031738,-0.13655269145965576,-178.8875274658203,-0.020436815917491913,-0.022032439708709717,-0.0041980743408203125
118244749838.80199,d4:ca:6e:f1:72:6c,-1.3116225004196167,-0.13745588064193726,-178.8767547607422,-0.011512920260429382,-0.012899737805128098,-0.018364906311035156
118244766509.13539,d4:ca:6e:f1:72:6c,-1.3119373321533203,-0.1377219259738922,-178.86630249023438,-0.016018107533454895,-0.008894991129636765,-0.011592864990234375
118244783179.4688,d4:ca:6e:f1:72:6c,-1.3122726678848267,-0.138269305229187,-178.85592651367188,-0.016687355935573578,-0.006472229957580566,-0.01732921600341797
118244799849.8022,d4:ca:6e:f1:72:6c,-1.3124480247497559,-0.13846160471439362,-178.84817504882812,-0.02548498660326004,0.0007192112971097231,-0.005278587341308594
118244816520.1356,d4:ca:6e:f1:72:6c,-1.3125733137130737,-0.1375586837530136,-178.8389434814453,-0.015699179843068123,-0.020607566460967064,-0.005715370178222656
118244833190.46901,d4:ca:6e:f1:72:6c,-1.3121577501296997,-0.13692717254161835,-178.82974243164062,-0.015900855883955956,-0.035483840852975845,-0.0046253204345703125
118244849860.80241,d4:ca:6e:f1:72:6c,-1.3118486404418945,-0.13620267808437347,-178.81948852539062,-0.029487788677215576,-0.03747658059000969,-0.015440940856933594
118244866531.13582,d4:ca:6e:f1:72:6c,-1.312085747718811,-0.13622458279132843,-178.8091278076172,-0.029377862811088562,-0.025099148973822594,-0.00676727294921875
118244883201.46922,d4:ca:6e:f1:72:6c,-1.3130111694335938,-0.13631372153759003,-178.79818725585938,-0.014790360815823078,-0.011860237456858158,-0.001064300537109375
118244899871.80263,d4:ca:6e:f1:72:6c,-1.3132981061935425,-0.13631515204906464,-178.7883758544922,-0.0165396835654974,0.0015066972700878978,0.011688232421875
118244916542.13603,d4:ca:6e:f1:72:6c,-1.3140957355499268,-0.13555262982845306,-178.77833557128906,-0.017711646854877472,-0.0035587986931204796,-0.014639854431152344
118244933212.46944,d4:ca:6e:f1:72:6c,-1.3142237663269043,-0.13460631668567657,-178.76817321777344,-0.01184093113988638,-0.007434531580656767,-0.011035919189453125
118244949882.80284,d4:ca:6e:f1:72:6c,-1.3130310773849487,-0.13529866933822632,-178.7579803466797,-0.024198131635785103,-0.01483628898859024,-0.01884746551513672
118244966553.13625,d4:ca:6e:f1:72:6c,-1.3133310079574585,-0.13483969867229462,-178.74893188476562,-0.012936032377183437,-0.021564260125160217,-0.003989219665527344
118244983223.46965,d4:ca:6e:f1:72:6c,-1.3139594793319702,-0.13618679344654083,-178.7388458251953,-0.009139400906860828,-0.026454249396920204,0.005978584289550781
118244999893.80305,d4:ca:6e:f1:72:6c,-1.3128983974456787,-0.1353471875190735,-178.728271484375,-0.013157425448298454,-0.037858378142118454,-0.015540122985839844
118245016564.13646,d4:ca:6e:f1:72:6c,-1.3141762018203735,-0.13574765622615814,-178.71826171875,-0.02353859320282936,-0.020007658749818802,-0.0065212249755859375
118245033234.46986,d4:ca:6e:f1:72:6c,-1.3160885572433472,-0.13500110805034637,-178.7081298828125,-0.018730701878666878,-0.026104815304279327,-0.008431434631347656
118245049904.80327,d4:ca:6e:f1:72:6c,-1.3154873847961426,-0.1353754848241806,-178.69683837890625,-0.02496662735939026,-0.01174227800220251,-0.010412216186523438
118245066575.13667,d4:ca:6e:f1:72:6c,-1.3165417909622192,-0.13546063005924225,-178.68601989746094,-0.019277462735772133,-0.002924953820183873,-0.011948585510253906
118245083245.47008,d4:ca:6e:f1:72:6c,-1.3163061141967773,-0.13482196629047394,-178.67587280273438,-0.008519740775227547,-0.011908035725355148,-0.014130592346191406
118245099915.80348,d4:ca:6e:f1:72:6c,-1.3159854412078857,-0.13523980975151062,-178.6660614013672,-0.015343298204243183,-0.013226085342466831,0.0039615631103515625
118245116586.13689,d4:ca:6e:f1:72:6c,-1.3161962032318115,-0.1348707377910614,-178.6557159423828,-0.018420614302158356,-0.018377508968114853,-0.007195472717285156
118245133256.47029,d4:ca:6e:f1:72:6c,-1.316361665725708,-0.13489051163196564,-178.6461944580078,-0.016724718734622,-0.0264575332403183,-0.009189605712890625
118245149926.8037,d4:ca:6e:f1:72:6c,-1.3152939081192017,-0.13408006727695465,-178.63490295410156,-0.03324346989393234,-0.029177015647292137,-0.016437530517578125
118245166597.1371,d4:ca:6e:f1:72:6c,-1.3157415390014648,-0.13367798924446106,-178.62461853027344,-0.025758914649486542,-0.034866731613874435,-0.0003910064697265625
118245183267.4705,d4:ca:6e:f1:72:6c,-1.3153213262557983,-0.13374672830104828,-178.6129608154297,-0.020503874868154526,-0.024649880826473236,0.0013437271118164062
118245199937.80391,d4:ca:6e:f1:72:6c,-1.3162904977798462,-0.1337704062461853,-178.60105895996094,-0.020977476611733437,-0.004977229051291943,-0.012236595153808594
118245216608.13731,d4:ca:6e:f1:72:6c,-1.3150495290756226,-0.13423682749271393,-178.58941650390625,-0.019089246168732643,-0.011885290034115314,-0.010394096374511719
118245233278.47072,d4:ca:6e:f1:72:6c,-1.3138643503189087,-0.134998619556427,-178.5790252685547,-0.007721537724137306,-0.006765718571841717,-0.013422012329101562
118245249948.80412,d4:ca:6e:f1:72:6c,-1.3135449886322021,-0.1353529840707779,-178.56866455078125,-0.018612973392009735,-0.01612943783402443,-0.0016012191772460938
118245266619.13753,d4:ca:6e:f1:72:6c,-1.3134653568267822,-0.13497428596019745,-178.55812072753906,-0.016769399866461754,-0.01165351178497076,-0.015600204467773438
118245283289.47093,d4:ca:6e:f1:72:6c,-1.3137423992156982,-0.13430586457252502,-178.54730224609375,-0.024833153933286667,-0.03313108906149864,-0.013332366943359375
118245299959.80434,d4:ca:6e:f1:72:6c,-1.3132636547088623,-0.13380976021289825,-178.5374755859375,-0.023668987676501274,-0.016561701893806458,-0.014865875244140625
118245316630.13774,d4:ca:6e:f1:72:6c,-1.3124990463256836,-0.1339353621006012,-178.52674865722656,-0.02360132336616516,-0.02396126464009285,-0.0070590972900390625
118245333300.47115,d4:ca:6e:f1:72:6c,-1.3129374980926514,-0.13362736999988556,-178.5167999267578,-0.010013500228524208,-0.022119412198662758,-0.014382362365722656
118245349970.80455,d4:ca:6e:f1:72:6c,-1.3125585317611694,-0.1332283318042755,-178.50619506835938,-0.02361927554011345,-0.012285448610782623,-0.012034416198730469
118245366641.13795,d4:ca:6e:f1:72:6c,-1.3132054805755615,-0.13282975554466248,-178.49591064453125,-0.01862972229719162,-0.004533549305051565,-0.013934135437011719
118245383311.47136,d4:ca:6e:f1:72:6c,-1.3137190341949463,-0.13248543441295624,-178.48587036132812,-0.010931084863841534,-0.01838078163564205,-0.0057773590087890625
118245399981.80476,d4:ca:6e:f1:72:6c,-1.3135643005371094,-0.13225626945495605,-178.47752380371094,-0.018353089690208435,-0.024869875982403755,-0.0027294158935546875
118245416652.13817,d4:ca:6e:f1:72:6c,-1.3141199350357056,-0.13169386982917786,-178.46722412109375,-0.012568146921694279,-0.02983006089925766,0.0006456375122070312
118245433322.47157,d4:ca:6e:f1:72:6c,-1.3130894899368286,-0.13172006607055664,-178.4574432373047,-0.009434090927243233,-0.021806245669722557,-0.020269393920898438
118245449992.80498,d4:ca:6e:f1:72:6c,-1.3134002685546875,-0.1317524015903473,-178.44752502441406,-0.03230635076761246,-0.029359690845012665,-0.0054798126220703125
118245466663.13838,d4:ca:6e:f1:72:6c,-1.3134117126464844,-0.13096725940704346,-178.4380340576172,-0.02830648049712181,-0.01937544345855713,-0.00896453857421875
118245483333.47179,d4:ca:6e:f1:72:6c,-1.3128567934036255,-0.1308845579624176,-178.427978515625,-0.020313531160354614,-0.01788538321852684,-0.016530990600585938
118245500003.80519,d4:ca:6e:f1:72:6c,-1.3123736381530762,-0.13100166618824005,-178.4185333251953,-0.022618304938077927,-0.011345494538545609,-0.02272319793701172
118245516674.1386,d4:ca:6e:f1:72:6c,-1.3111521005630493,-0.12982361018657684,-178.40672302246094,-0.04405532032251358,-0.008519139140844345,-0.00896453857421875
118245533344.472,d4:ca:6e:f1:72:6c,-1.311151146888733,-0.12991143763065338,-178.3972930908203,-0.025152752175927162,-0.011449079029262066,-0.01735973358154297
118245549895.5,d4:ca:6e:f1:72:6c,-1.3117930889129639,-0.1307598203420639,-178.38771057128906,-0.02067965269088745,-0.011455263942480087,-0.0038394927978515625
118245566565.8334,d4:ca:6e:f1:72:6c,-1.3140029907226562,-0.13121911883354187,-178.3778533935547,-0.026469850912690163,-0.017941776663064957,-0.009552001953125
118245583236.16681,d4:ca:6e:f1:72:6c,-1.3151534795761108,-0.13209010660648346,-178.36715698242188,-0.006611232180148363,-0.018009262159466743,-0.04328155517578125
118245599906.50021,d4:ca:6e:f1:72:6c,-1.3151668310165405,-0.1317438930273056,-178.35675048828125,-0.026088083162903786,-0.026867542415857315,-0.018464088439941406
118245616576.83362,d4:ca:6e:f1:72:6c,-1.313844084739685,-0.13290904462337494,-178.3472442626953,-0.02058352902531624,-0.026621321216225624,0.007595062255859375
118245633247.16702,d4:ca:6e:f1:72:6c,-1.3135355710983276,-0.1329766809940338,-178.3363494873047,-0.01828482747077942,-0.02378622256219387,0.0050525665283203125
118245649917.50043,d4:ca:6e:f1:72:6c,-1.313725233078003,-0.13332483172416687,-178.32632446289062,-0.017473872750997543,-0.016065329313278198,-0.012135505676269531
118245666587.83383,d4:ca:6e:f1:72:6c,-1.3135391473770142,-0.13214965164661407,-178.3155059814453,-0.017271991819143295,-0.011604349128901958,-0.008373260498046875
118245683258.16724,d4:ca:6e:f1:72:6c,-1.31329345703125,-0.13146382570266724,-178.3047332763672,-0.026423586532473564,-0.011077260598540306,0.007172584533691406
118245699846.9,d4:ca:6e:f1:72:6c,-1.3120540380477905,-0.13217175006866455,-178.29391479492188,-0.013836158439517021,-0.014940805733203888,0.006686210632324219
118245716517.2334,d4:ca:6e:f1:72:6c,-1.310848355293274,-0.13177390396595,-178.28294372558594,-0.008536232635378838,-0.02546694129705429,0.005120277404785156
118245733187.5668,d4:ca:6e:f1:72:6c,-1.3115155696868896,-0.13298200070858002,-178.2716827392578,-0.017115237191319466,-0.02533523365855217,-0.026037216186523438
118245749857.9002,d4:ca:6e:f1:72:6c,-1.3109724521636963,-0.13287146389484406,-178.26190185546875,-0.024184150621294975,-0.020281530916690826,-0.01079559326171875
118245766528.23361,d4:ca:6e:f1:72:6c,-1.312076449394226,-0.13302846252918243,-178.2523193359375,-0.01358609739691019,-0.027275480329990387,-0.026149749755859375
118245783198.56702,d4:ca:6e:f1:72:6c,-1.312066674232483,-0.13287365436553955,-178.2421417236328,-0.023787997663021088,-0.02082066424190998,-0.018471717834472656
118245799868.90042,d4:ca:6e:f1:72:6c,-1.3121910095214844,-0.13316211104393005,-178.23199462890625,-0.008393505588173866,-0.007712754420936108,0.00064849853515625
118245816539.23383,d4:ca:6e:f1:72:6c,-1.3118555545806885,-0.13262300193309784,-178.22128295898438,-0.0170916561037302,-0.02057371474802494,-0.010388374328613281
118245833209.56723,d4:ca:6e:f1:72:6c,-1.3119573593139648,-0.1320953369140625,-178.21173095703125,-0.01648995652794838,-0.015872202813625336,-0.004504203796386719
118245849879.90063,d4:ca:6e:f1:72:6c,-1.3125163316726685,-0.1318597048521042,-178.2022705078125,-0.023601315915584564,-0.012156874872744083,-0.019461631774902344
118245866550.23404,d4:ca:6e:f1:72:6c,-1.3138962984085083,-0.13274283707141876,-178.19227600097656,-0.018636586144566536,-0.020113522186875343,-0.003253936767578125
118245883220.56744,d4:ca:6e:f1:72:6c,-1.3125196695327759,-0.13406582176685333,-178.182373046875,-0.022154374048113823,-0.027192551642656326,-0.01680755615234375
118245899890.90085,d4:ca:6e:f1:72:6c,-1.3130991458892822,-0.13427813351154327,-178.172607421875,-0.026419222354888916,-0.02464640513062477,-0.015013694763183594
118245916561.23425,d4:ca:6e:f1:72:6c,-1.3140668869018555,-0.13414129614830017,-178.1618194580078,-0.030164096504449844,-0.01954537443816662,-0.012765884399414062
118245933231.56766,d4:ca:6e:f1:72:6c,-1.313636302947998,-0.134060800075531,-178.15133666992188,-0.01962670311331749,-0.01130213588476181,-0.0058746337890625
118245949901.90106,d4:ca:6e:f1:72:6c,-1.3127124309539795,-0.13402320444583893,-178.14019775390625,-0.011228399351239204,-0.015814563259482384,-0.03519916534423828
118245966572.23447,d4:ca:6e:f1:72:6c,-1.3124123811721802,-0.1334124356508255,-178.13064575195312,-0.01641996204853058,-0.012723083607852459,-0.015277862548828125
118245983242.56787,d4:ca:6e:f1:72:6c,-1.312903881072998,-0.13265803456306458,-178.11972045898438,-0.013897303491830826,-0.007580271456390619,-0.015961647033691406
118245999912.90128,d4:ca:6e:f1:72:6c,-1.3123430013656616,-0.13266542553901672,-178.10939025878906,-0.02640647627413273,-0.01758445054292679,-0.017465591430664062
118246016583.23468,d4:ca:6e:f1:72:6c,-1.312394380569458,-0.1327715665102005,-178.09996032714844,-0.02679889090359211,-0.00579593563452363,-0.022444725036621094
118246033253.56808,d4:ca:6e:f1:72:6c,-1.312227487564087,-0.13292451202869415,-178.09051513671875,-0.011240657418966293,-0.014199739322066307,-0.007099151611328125
118246049923.90149,d4:ca:6e:f1:72:6c,-1.3112283945083618,-0.13280189037322998,-178.08091735839844,-0.01214826013892889,-0.024080535396933556,-0.006674766540527344
118246066594.2349,d4:ca:6e:f1:72:6c,-1.311564564704895,-0.13158290088176727,-178.07089233398438,-0.014378199353814125,-0.021911030635237694,-0.013052940368652344
118246083264.5683,d4:ca:6e:f1:72:6c,-1.3107408285140991,-0.13186617195606232,-178.05947875976562,-0.01832149364054203,-0.023426208645105362,-0.019234657287597656
118246099934.9017,d4:ca:6e:f1:72:6c,-1.3106974363327026,-0.13128018379211426,-178.04856872558594,-0.017830701544880867,-0.01566203497350216,-0.013335227966308594
118246116605.2351,d4:ca:6e:f1:72:6c,-1.3115098476409912,-0.13135462999343872,-178.03848266601562,-0.016426531597971916,-0.01945733278989792,-0.010868072509765625
118246133275.56851,d4:ca:6e:f1:72:6c,-1.3117400407791138,-0.13232123851776123,-178.02838134765625,-0.018921460956335068,-0.008464504964649677,-0.01021575927734375
118246149945.90192,d4:ca:6e:f1:72:6c,-1.311792254447937,-0.13280373811721802,-178.0181121826172,-0.024292046204209328,-0.0034817978739738464,-0.01422119140625
118246166616.23532,d4:ca:6e:f1:72:6c,-1.3105757236480713,-0.13320975005626678,-178.00779724121094,-0.006666966248303652,-0.02342415787279606,-0.022800445556640625
118246183286.56873,d4:ca:6e:f1:72:6c,-1.3090848922729492,-0.13367578387260437,-177.9969482421875,-0.010790355503559113,-0.020312055945396423,-0.012911796569824219
118246199956.90213,d4:ca:6e:f1:72:6c,-1.308200716972351,-0.13392867147922516,-177.98663330078125,-0.01579926162958145,-0.02360348217189312,-0.008785247802734375
118246216627.23553,d4:ca:6e:f1:72:6c,-1.3081177473068237,-0.13327506184577942,-177.9757080078125,-0.02807886153459549,-0.02514263242483139,-0.008618354797363281
118246233297.56894,d4:ca:6e:f1:72:6c,-1.3084558248519897,-0.13338065147399902,-177.9653778076172,-0.022556455805897713,-0.022408397868275642,-0.012852668762207031
118246249967.90234,d4:ca:6e:f1:72:6c,-1.3075789213180542,-0.1326693594455719,-177.95510864257812,-0.027019355446100235,-0.014622228220105171,-0.0006084442138671875
118246266638.23575,d4:ca:6e:f1:72:6c,-1.3074488639831543,-0.13229641318321228,-177.9435272216797,-0.01734836958348751,-0.013201679103076458,-0.011415481567382812
118246283308.56915,d4:ca:6e:f1:72:6c,-1.3078418970108032,-0.13344620168209076,-177.93307495117188,-0.02658727951347828,-0.013453247025609016,-0.011582374572753906
118246299978.90256,d4:ca:6e:f1:72:6c,-1.307191014289856,-0.1330789178609848,-177.92303466796875,-0.009094135835766792,-0.020065318793058395,-0.008575439453125
118246316649.23596,d4:ca:6e:f1:72:6c,-1.3077689409255981,-0.13266944885253906,-177.9129638671875,-0.019657066091895103,-0.003638430265709758,-0.01710224151611328
118246333319.56937,d4:ca:6e:f1:72:6c,-1.3081451654434204,-0.13281601667404175,-177.9016571044922,-0.030463045462965965,-0.02903737500309944,-0.007674217224121094
118246349989.90277,d4:ca:6e:f1:72:6c,-1.3073959350585938,-0.13244283199310303,-177.89161682128906,-0.03428899869322777,-0.023695170879364014,-0.012253761291503906
118246366660.23618,d4:ca:6e:f1:72:6c,-1.3077120780944824,-0.13211432099342346,-177.88197326660156,-0.016466908156871796,-0.009330394677817822,-0.025087356567382812
118246383330.56958,d4:ca:6e:f1:72:6c,-1.3077536821365356,-0.1318247765302658,-177.8706817626953,-0.012155233882367611,-0.009688446298241615,-0.012134552001953125
118246400000.90298,d4:ca:6e:f1:72:6c,-1.3068944215774536,-0.1322024166584015,-177.8590545654297,-0.015613698400557041,-0.011543028987944126,-0.007982254028320312
118246416671.23639,d4:ca:6e:f1:72:6c,-1.3060272932052612,-0.1330976039171219,-177.84959411621094,-0.024470828473567963,-0.020074373111128807,-0.012193679809570312
118246433341.5698,d4:ca:6e:f1:72:6c,-1.306173324584961,-0.13408491015434265,-177.84054565429688,-0.017618870362639427,-0.0200047604739666,-0.011155128479003906
118246450011.9032,d4:ca:6e:f1:72:6c,-1.306976079940796,-0.13360272347927094,-177.83071899414062,-0.011134112253785133,-0.006370392628014088,-0.02565288543701172
118246466682.2366,d4:ca:6e:f1:72:6c,-1.3075282573699951,-0.1329750120639801,-177.8207550048828,-0.01887683756649494,-0.024975497275590897,-0.012843132019042969
118246483352.57,d4:ca:6e:f1:72:6c,-1.3069738149642944,-0.13262949883937836,-177.81129455566406,-0.02688039466738701,-0.019298255443572998,-0.008496284484863281
118246500022.90341,d4:ca:6e:f1:72:6c,-1.3081135749816895,-0.13284926116466522,-177.8009033203125,-0.03231201693415642,-0.02103385142982006,-0.02931976318359375
118246516693.23682,d4:ca:6e:f1:72:6c,-1.30759859085083,-0.13265006244182587,-177.7907257080078,-0.020258143544197083,-0.012957916595041752,-0.016628265380859375
118246533363.57022,d4:ca:6e:f1:72:6c,-1.309474229812622,-0.1324959546327591,-177.78012084960938,-0.01523669995367527,-0.02363281138241291,0.004624366760253906
118246550033.90363,d4:ca:6e:f1:72:6c,-1.3102030754089355,-0.13270841538906097,-177.76910400390625,-0.03216974809765816,-0.007379110902547836,-0.016998291015625
118246566704.23703,d4:ca:6e:f1:72:6c,-1.3104349374771118,-0.13374267518520355,-177.75791931152344,-0.027843786403536797,-0.024638906121253967,-0.010304450988769531
118246583374.57043,d4:ca:6e:f1:72:6c,-1.3108323812484741,-0.13387249410152435,-177.74722290039062,-0.014517887495458126,-0.02057827077805996,-0.004109382629394531
118246600044.90384,d4:ca:6e:f1:72:6c,-1.3118515014648438,-0.13363951444625854,-177.73672485351562,-0.016492366790771484,-0.015815693885087967,-0.021745681762695312
118246616715.23724,d4:ca:6e:f1:72:6c,-1.3125412464141846,-0.13334055244922638,-177.72671508789062,-0.0166571456938982,-0.02450372651219368,-0.013703346252441406
118246633385.57065,d4:ca:6e:f1:72:6c,-1.3137232065200806,-0.13311634957790375,-177.71653747558594,-0.020383920520544052,-0.02692447416484356,-0.015252113342285156
118246650055.90405,d4:ca:6e:f1:72:6c,-1.3143953084945679,-0.13332274556159973,-177.70584106445312,-0.02943800762295723,-0.01798917166888714,-0.0024871826171875
118246666726.23746,d4:ca:6e:f1:72:6c,-1.315682053565979,-0.1327725052833557,-177.69509887695312,-0.02533160150051117,-0.023745939135551453,-0.008387565612792969
118246683396.57086,d4:ca:6e:f1:72:6c,-1.3159860372543335,-0.1322348415851593,-177.68492126464844,-0.006943951360881329,-0.028545446693897247,-0.002758026123046875
118246700066.90427,d4:ca:6e:f1:72:6c,-1.314834475517273,-0.13357721269130707,-177.67498779296875,-0.02370845340192318,-0.0250889603048563,-0.022296905517578125
118246716737.23767,d4:ca:6e:f1:72:6c,-1.3145029544830322,-0.13297834992408752,-177.6645050048828,-0.01606415957212448,-0.02726520225405693,-0.022573471069335938
118246733407.57108,d4:ca:6e:f1:72:6c,-1.3142013549804688,-0.13241229951381683,-177.65403747558594,-0.020654553547501564,-0.0211575198918581,-0.009825706481933594
118246750077.90448,d4:ca:6e:f1:72:6c,-1.3137625455856323,-0.13309359550476074,-177.64309692382812,-0.026665622368454933,-0.014688880182802677,-0.025758743286132812
118246766748.23788,d4:ca:6e:f1:72:6c,-1.3134148120880127,-0.13305261731147766,-177.6336212158203,-0.02066767029464245,-0.0188169963657856,-0.007287025451660156
118246783418.57129,d4:ca:6e:f1:72:6c,-1.3114434480667114,-0.1341693252325058,-177.6236114501953,-0.009873202070593834,-0.013134774751961231,-0.02024555206298828
118246800088.9047,d4:ca:6e:f1:72:6c,-1.3103148937225342,-0.134211927652359,-177.61326599121094,-0.024764718487858772,-0.016452817246317863,-0.006482124328613281
118246816759.2381,d4:ca:6e:f1:72:6c,-1.3090740442276,-0.13433906435966492,-177.60415649414062,-0.01920127123594284,-0.03137589618563652,-0.011399269104003906
118246833429.5715,d4:ca:6e:f1:72:6c,-1.3098187446594238,-0.13487626612186432,-177.59413146972656,-0.01201816275715828,-0.014775784686207771,-0.013790130615234375
118246850099.9049,d4:ca:6e:f1:72:6c,-1.3096113204956055,-0.13448500633239746,-177.58360290527344,-0.01563415676355362,-0.01882133260369301,-0.006382942199707031
118246866770.23831,d4:ca:6e:f1:72:6c,-1.3082939386367798,-0.13372761011123657,-177.57350158691406,-0.029829319566488266,-0.01891508884727955,-0.03092479705810547
118246883440.57172,d4:ca:6e:f1:72:6c,-1.3086670637130737,-0.1340397149324417,-177.5627899169922,-0.013570232316851616,-0.008567594923079014,-0.0031261444091796875
118246900110.90512,d4:ca:6e:f1:72:6c,-1.307666301727295,-0.1340979039669037,-177.5524444580078,-0.00911327637732029,-0.013879016973078251,0.0054607391357421875
118246916781.23853,d4:ca:6e:f1:72:6c,-1.3084425926208496,-0.13450250029563904,-177.5426483154297,-0.016477763652801514,-0.01341037917882204,0.012940406799316406
118246933451.57193,d4:ca:6e:f1:72:6c,-1.3071149587631226,-0.13497908413410187,-177.53158569335938,-0.013253891840577126,-0.02253035455942154,-0.018733978271484375
118246950121.90533,d4:ca:6e:f1:72:6c,-1.3079118728637695,-0.13538943231105804,-177.5209503173828,-0.016185550019145012,-0.027601219713687897,-0.01737689971923828
118246966792.23874,d4:ca:6e:f1:72:6c,-1.3071718215942383,-0.13553889095783234,-177.5101776123047,-0.023929808288812637,-0.02244512364268303,0.008226394653320312
118246983462.57214,d4:ca:6e:f1:72:6c,-1.3061314821243286,-0.1362498700618744,-177.5018310546875,-0.019004840403795242,-0.022796176373958588,-0.02611255645751953
118247000132.90555,d4:ca:6e:f1:72:6c,-1.3079347610473633,-0.13595075905323029,-177.49111938476562,-0.011688095517456532,-0.017936130985617638,-0.014886856079101562
118247016803.23895,d4:ca:6e:f1:72:6c,-1.3075519800186157,-0.13598515093326569,-177.48057556152344,-0.01477362122386694,-0.028245719149708748,0.00043487548828125
118247033473.57236,d4:ca:6e:f1:72:6c,-1.308436632156372,-0.1362529844045639,-177.470458984375,-0.019145261496305466,-0.01946737803518772,-0.046874046325683594
118247049875.2,d4:ca:6e:f1:72:6c,-1.3080726861953735,-0.13519495725631714,-177.46044921875,-0.024135777726769447,-0.027338353917002678,-0.0016689300537109375
118247066545.5334,d4:ca:6e:f1:72:6c,-1.3082398176193237,-0.13489967584609985,-177.4506378173828,-0.010756964795291424,-0.02259780466556549,0.0036220550537109375
118247083215.8668,d4:ca:6e:f1:72:6c,-1.3077813386917114,-0.1353759765625,-177.43966674804688,-0.007452582009136677,-0.023155497387051582,-0.02939319610595703
118247099886.20021,d4:ca:6e:f1:72:6c,-1.308815360069275,-0.1353171020746231,-177.4295196533203,-0.03355628252029419,-0.01355268619954586,-0.01733112335205078
118247116556.53362,d4:ca:6e:f1:72:6c,-1.3082102537155151,-0.1356595754623413,-177.41983032226562,-0.019264977425336838,-0.02383003756403923,-0.010430335998535156
118247133226.86702,d4:ca:6e:f1:72:6c,-1.3081046342849731,-0.13583794236183167,-177.40951538085938,-0.006847366224974394,-0.020889362320303917,-0.020483970642089844
118247149897.20042,d4:ca:6e:f1:72:6c,-1.3085883855819702,-0.13604973256587982,-177.39915466308594,-0.02931402437388897,-0.020724870264530182,-0.004471778869628906
118247166567.53383,d4:ca:6e:f1:72:6c,-1.309373140335083,-0.1368139386177063,-177.3892822265625,-0.012132647447288036,-0.019783416762948036,-0.010095596313476562
118247183237.86723,d4:ca:6e:f1:72:6c,-1.3093953132629395,-0.13711152970790863,-177.37940979003906,-0.02036876603960991,-0.022017035633325577,-0.012470245361328125
118247199908.20064,d4:ca:6e:f1:72:6c,-1.30866539478302,-0.13675573468208313,-177.36801147460938,-0.0036024372093379498,-0.012991285882890224,-0.025075912475585938
118247216578.53404,d4:ca:6e:f1:72:6c,-1.3094033002853394,-0.13673633337020874,-177.3580780029297,-0.018309447914361954,-0.00814579427242279,-0.005049705505371094
118247233248.86745,d4:ca:6e:f1:72:6c,-1.3082771301269531,-0.13619019091129303,-177.34716796875,-0.0137313362210989,-0.02286529168486595,-0.02645587921142578
118247249919.20085,d4:ca:6e:f1:72:6c,-1.3083786964416504,-0.13660909235477448,-177.33560180664062,-0.019957108423113823,-0.019514042884111404,-0.008182525634765625
118247266589.53426,d4:ca:6e:f1:72:6c,-1.308992624282837,-0.1370498239994049,-177.32513427734375,-0.01939604990184307,-0.024026894941926003,-0.008100509643554688
118247283259.86766,d4:ca:6e:f1:72:6c,-1.3095338344573975,-0.13764022290706635,-177.31373596191406,-0.022436439990997314,-0.020428527146577835,-0.032980918884277344
118247299930.20107,d4:ca:6e:f1:72:6c,-1.3100714683532715,-0.13819442689418793,-177.30410766601562,-0.013012523762881756,-0.016478195786476135,-0.0005702972412109375
118247316600.53447,d4:ca:6e:f1:72:6c,-1.308901309967041,-0.13869474828243256,-177.2930908203125,-0.01680365763604641,-0.017068104818463326,0.0040493011474609375
118247333270.86787,d4:ca:6e:f1:72:6c,-1.3088464736938477,-0.13842655718326569,-177.28237915039062,-0.025195343419909477,-0.01789265125989914,-0.0013189315795898438
118247349826.5,d4:ca:6e:f1:72:6c,-1.309111475944519,-0.13820773363113403,-177.27218627929688,-0.025236740708351135,-0.016976099461317062,-0.013882637023925781
118247366496.8334,d4:ca:6e:f1:72:6c,-1.3099801540374756,-0.13916535675525665,-177.26206970214844,-0.012072479352355003,-0.021560849621891975,-0.0041446685791015625
118247383167.16681,d4:ca:6e:f1:72:6c,-1.309691071510315,-0.1394159495830536,-177.25244140625,-0.031448815017938614,-0.016480695456266403,-0.011369705200195312
118247399837.50021,d4:ca:6e:f1:72:6c,-1.3104490041732788,-0.1395730972290039,-177.24169921875,-0.021770363673567772,-0.019704744219779968,-0.031538963317871094
118247416507.83362,d4:ca:6e:f1:72:6c,-1.3097621202468872,-0.13945676386356354,-177.2310333251953,-0.024581314995884895,-0.022432390600442886,-0.008472442626953125
118247433178.16702,d4:ca:6e:f1:72:6c,-1.3120607137680054,-0.13922376930713654,-177.22027587890625,-0.024724680930376053,-0.03136172518134117,-0.011613845825195312
118247449848.50043,d4:ca:6e:f1:72:6c,-1.3124231100082397,-0.13936276733875275,-177.210205078125,-0.014640359207987785,-0.009369895793497562,-0.014331817626953125
118247466518.83383,d4:ca:6e:f1:72:6c,-1.3130837678909302,-0.13864822685718536,-177.1997833251953,-0.019841203466057777,-0.015575370751321316,0.0019006729125976562
118247483189.16724,d4:ca:6e:f1:72:6c,-1.313219428062439,-0.13880135118961334,-177.18833923339844,-0.028620989993214607,-0.026672249659895897,-0.02072906494140625
118247499859.50064,d4:ca:6e:f1:72:6c,-1.3138329982757568,-0.13858649134635925,-177.17868041992188,-0.020367475226521492,-0.009189187549054623,-0.03222465515136719
118247516529.83405,d4:ca:6e:f1:72:6c,-1.310096263885498,-0.1399984061717987,-177.16806030273438,-0.02851688675582409,-0.013526550494134426,-0.008394241333007812
118247533200.16745,d4:ca:6e:f1:72:6c,-1.3100345134735107,-0.1407862901687622,-177.15823364257812,-0.019046509638428688,-0.0026383460499346256,-0.013905525207519531
118247549870.50085,d4:ca:6e:f1:72:6c,-1.310068964958191,-0.14059051871299744,-177.14736938476562,-0.01741912215948105,-0.016808850690722466,-0.012167930603027344
118247566540.83426,d4:ca:6e:f1:72:6c,-1.3124282360076904,-0.13978272676467896,-177.13784790039062,-0.010621464811265469,-0.006822941359132528,0.008127212524414062
118247583211.16766,d4:ca:6e:f1:72:6c,-1.312464714050293,-0.13997377455234528,-177.12664794921875,-0.002642357023432851,-0.013448553159832954,-0.003025054931640625
118247599881.50107,d4:ca:6e:f1:72:6c,-1.3114933967590332,-0.14006662368774414,-177.11660766601562,-0.0186882596462965,-0.011878744699060917,-0.016424179077148438
118247616551.83447,d4:ca:6e:f1:72:6c,-1.3125193119049072,-0.140378937125206,-177.10678100585938,-0.01242707297205925,-0.014048060402274132,-0.026411056518554688
118247633222.16788,d4:ca:6e:f1:72:6c,-1.3136870861053467,-0.14100606739521027,-177.09710693359375,-0.023617323487997055,-0.011551600880920887,-0.006632804870605469
118247649892.50128,d4:ca:6e:f1:72:6c,-1.3137211799621582,-0.14140444993972778,-177.08706665039062,-0.00724605331197381,-0.018694771453738213,-0.0047931671142578125
118247666562.83469,d4:ca:6e:f1:72:6c,-1.3127057552337646,-0.14140954613685608,-177.07687377929688,-0.015877798199653625,-0.01937948726117611,-0.012332916259765625
118247683233.16809,d4:ca:6e:f1:72:6c,-1.3120390176773071,-0.14130085706710815,-177.06689453125,-0.03454285487532616,-0.021542029455304146,0.00010585784912109375
118247699903.5015,d4:ca:6e:f1:72:6c,-1.3124650716781616,-0.14168746769428253,-177.0571746826172,-0.005574200302362442,-0.016229918226599693,-0.010035514831542969
118247716573.8349,d4:ca:6e:f1:72:6c,-1.311867356300354,-0.14199666678905487,-177.04615783691406,-0.020923571661114693,-0.01771624945104122,-0.031703948974609375
118247733244.1683,d4:ca:6e:f1:72:6c,-1.311518907546997,-0.14094959199428558,-177.03565979003906,-0.036725595593452454,-0.027569537982344627,0.0095062255859375
118247749914.50171,d4:ca:6e:f1:72:6c,-1.3108667135238647,-0.14000020921230316,-177.02505493164062,-0.013845852576196194,-0.023568695411086082,-0.0035858154296875
118247766584.83511,d4:ca:6e:f1:72:6c,-1.310030460357666,-0.1396283209323883,-177.01516723632812,-0.015967272222042084,-0.013919549994170666,-0.005324363708496094
118247783255.16852,d4:ca:6e:f1:72:6c,-1.3104227781295776,-0.1386502981185913,-177.0052032470703,-0.013652785681188107,-0.018147166818380356,-0.00249481201171875
118247799925.50192,d4:ca:6e:f1:72:6c,-1.3113082647323608,-0.13884367048740387,-176.99473571777344,-0.010745571926236153,-0.01715751923620701,-0.0020856857299804688
118247816595.83533,d4:ca:6e:f1:72:6c,-1.3120967149734497,-0.13977020978927612,-176.9854278564453,-0.012680800631642342,-0.016401059925556183,-0.015913009643554688
118247833266.16873,d4:ca:6e:f1:72:6c,-1.3110872507095337,-0.1384350061416626,-176.97503662109375,-0.031197940930724144,-0.03268205374479294,0.0042133331298828125
118247849936.50214,d4:ca:6e:f1:72:6c,-1.3103857040405273,-0.14007365703582764,-176.964111328125,-0.019045284017920494,-0.022462056949734688,-0.005051612854003906
118247866606.83554,d4:ca:6e:f1:72:6c,-1.3104151487350464,-0.13997824490070343,-176.95370483398438,-0.011955531314015388,-0.02122112736105919,-0.017408370971679688
118247883277.16895,d4:ca:6e:f1:72:6c,-1.3113434314727783,-0.14097514748573303,-176.94313049316406,-0.016920633614063263,-0.0175750982016325,-0.018601417541503906
118247899947.50235,d4:ca:6e:f1:72:6c,-1.3108177185058594,-0.14133073389530182,-176.93382263183594,-0.009505707770586014,-0.021558590233325958,0.005490303039550781
118247916617.83575,d4:ca:6e:f1:72:6c,-1.3097145557403564,-0.14028258621692657,-176.9224853515625,-0.016367385163903236,-0.015248987823724747,-0.01563549041748047
118247933288.16916,d4:ca:6e:f1:72:6c,-1.3095059394836426,-0.1405470371246338,-176.91253662109375,-0.019495688378810883,-0.012628067284822464,-0.01809978485107422
118247949958.50256,d4:ca:6e:f1:72:6c,-1.3109116554260254,-0.14137263596057892,-176.9026641845703,-0.006524557713419199,-0.023931195959448814,-0.010377883911132812
118247966628.83597,d4:ca:6e:f1:72:6c,-1.3096851110458374,-0.14198046922683716,-176.89280700683594,-0.009643163532018661,-0.019907398149371147,0.00027179718017578125
118247983299.16937,d4:ca:6e:f1:72:6c,-1.3098843097686768,-0.1424965262413025,-176.88259887695312,-0.01583603210747242,-0.021697111427783966,-0.011612892150878906
118247999969.50278,d4:ca:6e:f1:72:6c,-1.3100316524505615,-0.1429191678762436,-176.8719482421875,-0.007348030339926481,-0.026249736547470093,-0.014529228210449219
118248016639.83618,d4:ca:6e:f1:72:6c,-1.3108606338500977,-0.1421283632516861,-176.86163330078125,-0.009951427578926086,-0.022225603461265564,-0.013195991516113281
118248033310.16959,d4:ca:6e:f1:72:6c,-1.3099825382232666,-0.14328494668006897,-176.85214233398438,-0.019098252058029175,-0.011588705703616142,-0.0035228729248046875
118248049980.50299,d4:ca:6e:f1:72:6c,-1.3095591068267822,-0.14335252344608307,-176.84176635742188,-0.022558288648724556,-0.03160756453871727,-0.025432586669921875
118248066650.8364,d4:ca:6e:f1:72:6c,-1.3100405931472778,-0.14393790066242218,-176.83094787597656,-0.024026745930314064,-0.015560324303805828,0.0038547515869140625
118248083321.1698,d4:ca:6e:f1:72:6c,-1.3103020191192627,-0.14487121999263763,-176.81936645507812,-0.008086765184998512,-0.01113448292016983,-0.005944252014160156
118248099991.5032,d4:ca:6e:f1:72:6c,-1.3115230798721313,-0.14510612189769745,-176.80899047851562,-0.005647281184792519,0.002976746065542102,-0.000782012939453125
118248116661.83661,d4:ca:6e:f1:72:6c,-1.3113019466400146,-0.14434635639190674,-176.79953002929688,-0.02388128452003002,-0.009653696790337563,0.00424957275390625
118248133332.17001,d4:ca:6e:f1:72:6c,-1.3109115362167358,-0.14478309452533722,-176.78988647460938,-0.010859675705432892,-0.02107325568795204,-0.022330284118652344
118248150002.50342,d4:ca:6e:f1:72:6c,-1.3103865385055542,-0.14565986394882202,-176.77969360351562,-0.016669167205691338,-0.018971456214785576,-0.010829925537109375
118248166672.83682,d4:ca:6e:f1:72:6c,-1.3105577230453491,-0.1457766443490982,-176.7696533203125,-0.026412785053253174,-0.010785374790430069,-0.01152801513671875
118248183343.17023,d4:ca:6e:f1:72:6c,-1.3111002445220947,-0.1446114182472229,-176.760498046875,-0.01614765264093876,-0.02721148543059826,-0.012984275817871094
118248200013.50363,d4:ca:6e:f1:72:6c,-1.310353398323059,-0.1449895203113556,-176.74903869628906,-0.026103150099515915,-0.0237447377294302,-0.01726818084716797
118248216683.83704,d4:ca:6e:f1:72:6c,-1.3093173503875732,-0.14489437639713287,-176.73912048339844,-0.001435789163224399,-0.011286254972219467,-0.009194374084472656
118248233354.17044,d4:ca:6e:f1:72:6c,-1.310242772102356,-0.14622832834720612,-176.7281951904297,-0.018687279894948006,-0.024398624897003174,-0.0159149169921875
118248250024.50385,d4:ca:6e:f1:72:6c,-1.3097738027572632,-0.14638686180114746,-176.71853637695312,-0.020029043778777122,-0.02249462530016899,-0.011864662170410156
118248266694.83725,d4:ca:6e:f1:72:6c,-1.3097716569900513,-0.14589901268482208,-176.70826721191406,-0.01697351410984993,-0.0205221027135849,-0.02034473419189453
118248283365.17065,d4:ca:6e:f1:72:6c,-1.3105757236480713,-0.14576449990272522,-176.69839477539062,-0.012318884022533894,-0.005106007680296898,-0.0016765594482421875
118248300035.50406,d4:ca:6e:f1:72:6c,-1.3120102882385254,-0.14488403499126434,-176.68702697753906,-0.020764242857694626,-0.015319918282330036,0.005459785461425781
118248316705.83746,d4:ca:6e:f1:72:6c,-1.3132426738739014,-0.145378977060318,-176.6767578125,-0.013058056123554707,-0.01831936091184616,-0.008359909057617188
118248333376.17087,d4:ca:6e:f1:72:6c,-1.3127317428588867,-0.14583897590637207,-176.66583251953125,-0.02323247492313385,-0.017639320343732834,-0.00104522705078125
118248350046.50427,d4:ca:6e:f1:72:6c,-1.3127528429031372,-0.14587634801864624,-176.6558837890625,-0.009309100918471813,-0.024784822016954422,-0.03250694274902344
118248366716.83768,d4:ca:6e:f1:72:6c,-1.3111177682876587,-0.14508390426635742,-176.6457061767578,-0.01482081227004528,-0.018774844706058502,-0.0051212310791015625
118248383387.17108,d4:ca:6e:f1:72:6c,-1.3108313083648682,-0.14427316188812256,-176.63504028320312,-0.024013103917241096,-0.011931550689041615,-0.0064544677734375
118248400056.499,d4:ca:6e:f1:72:6c,-1.310298204421997,-0.14409413933753967,-176.6236114501953,-0.029268618673086166,-0.0121093038469553,-0.008814811706542969
118248416726.8324,d4:ca:6e:f1:72:6c,-1.3117735385894775,-0.14477305114269257,-176.61277770996094,-0.015386808663606644,-0.023459751158952713,-0.015899658203125
118248433397.1658,d4:ca:6e:f1:72:6c,-1.3107200860977173,-0.14434486627578735,-176.60203552246094,-0.02056693285703659,-0.011097651906311512,0.0047607421875
118248450067.4992,d4:ca:6e:f1:72:6c,-1.3092213869094849,-0.14482596516609192,-176.59130859375,-0.027443261817097664,-0.02500600926578045,-0.02058887481689453
118248466737.83261,d4:ca:6e:f1:72:6c,-1.3086518049240112,-0.14396487176418304,-176.58010864257812,-0.01653197407722473,-0.02250441163778305,-0.009296417236328125
118248483408.16602,d4:ca:6e:f1:72:6c,-1.307936429977417,-0.1438675820827484,-176.57080078125,-0.01889343187212944,-0.022653691470623016,-0.014522552490234375
118248500078.49942,d4:ca:6e:f1:72:6c,-1.3069368600845337,-0.14407330751419067,-176.56045532226562,-0.018246088176965714,-0.013080098666250706,0.0060939788818359375
118248516748.83282,d4:ca:6e:f1:72:6c,-1.308253526687622,-0.14401200413703918,-176.5499267578125,-0.024307694286108017,-0.026719462126493454,-0.004034996032714844
118248533419.16623,d4:ca:6e:f1:72:6c,-1.3082399368286133,-0.14418765902519226,-176.54000854492188,-0.019087014719843864,-0.016294579952955246,-0.002414703369140625
118248549816.899,d4:ca:6e:f1:72:6c,-1.307644009590149,-0.1446782350540161,-176.53012084960938,-0.009489544667303562,-0.01518833078444004,-0.021719932556152344
118248566487.2324,d4:ca:6e:f1:72:6c,-1.308450698852539,-0.14458806812763214,-176.5195770263672,-0.014779987744987011,-0.02339065819978714,-0.019628524780273438
118248583157.56581,d4:ca:6e:f1:72:6c,-1.3079264163970947,-0.14424759149551392,-176.508544921875,-0.024259494617581367,-0.0160505548119545,-0.004170417785644531
118248599827.89922,d4:ca:6e:f1:72:6c,-1.3086596727371216,-0.14409755170345306,-176.49838256835938,-0.015043897554278374,-0.02058236487209797,-0.013416290283203125
118248616498.23262,d4:ca:6e:f1:72:6c,-1.3080220222473145,-0.14362482726573944,-176.4889678955078,-0.01156249176710844,-0.0222189798951149,0.0019655227661132812
118248633168.56602,d4:ca:6e:f1:72:6c,-1.3090980052947998,-0.1425100564956665,-176.47918701171875,-0.029730211943387985,-0.015331952832639217,-0.02082538604736328
118248649838.89943,d4:ca:6e:f1:72:6c,-1.3085310459136963,-0.1431361883878708,-176.4685821533203,-0.03318491578102112,-0.015433728694915771,-0.011236190795898438
118248666509.23283,d4:ca:6e:f1:72:6c,-1.3078416585922241,-0.14325876533985138,-176.4586639404297,-0.015564076602458954,-0.011486334726214409,-0.009500503540039062
118248683179.56624,d4:ca:6e:f1:72:6c,-1.30894136428833,-0.1432398110628128,-176.4481658935547,-0.019352633506059647,-0.020201927050948143,-0.022718429565429688
118248699849.89964,d4:ca:6e:f1:72:6c,-1.3080594539642334,-0.14260919392108917,-176.4376983642578,-0.0032027186825871468,-0.022550033405423164,-0.014883995056152344
118248716520.23305,d4:ca:6e:f1:72:6c,-1.3078526258468628,-0.1431230902671814,-176.42782592773438,-0.010552840307354927,-0.01465822383761406,-0.006512641906738281
118248733190.56645,d4:ca:6e:f1:72:6c,-1.3076953887939453,-0.14239345490932465,-176.41836547851562,-0.02142808958888054,-0.02630508318543434,-0.006873130798339844
118248749860.89986,d4:ca:6e:f1:72:6c,-1.3068405389785767,-0.14244385063648224,-176.40931701660156,-0.016665611416101456,-0.016382453963160515,-0.02535247802734375
118248766531.23326,d4:ca:6e:f1:72:6c,-1.3063673973083496,-0.14145946502685547,-176.39927673339844,-0.03037266992032528,-0.02814553864300251,-0.01575183868408203
118248783201.56667,d4:ca:6e:f1:72:6c,-1.305442452430725,-0.14313183724880219,-176.38856506347656,-0.022205201908946037,-0.020251251757144928,0.0011548995971679688
118248799871.90007,d4:ca:6e:f1:72:6c,-1.3066259622573853,-0.14279042184352875,-176.37835693359375,-0.02194802463054657,-0.04544674605131149,-0.007616996765136719
118248816542.23347,d4:ca:6e:f1:72:6c,-1.3073538541793823,-0.14309677481651306,-176.36827087402344,-0.00436534034088254,-0.030617456883192062,-0.016388893127441406
118248833212.56688,d4:ca:6e:f1:72:6c,-1.3082215785980225,-0.1424398422241211,-176.35885620117188,-0.01694350317120552,-0.02375180460512638,-0.007309913635253906
118248849882.90028,d4:ca:6e:f1:72:6c,-1.3077133893966675,-0.14313489198684692,-176.3490447998047,-0.015536828897893429,-0.026345575228333473,-0.0030498504638671875
118248866553.23369,d4:ca:6e:f1:72:6c,-1.309306025505066,-0.1427222341299057,-176.3389129638672,-0.031676944345235825,-0.005064195953309536,-0.021040916442871094
118248883223.5671,d4:ca:6e:f1:72:6c,-1.308853268623352,-0.1417558193206787,-176.32870483398438,-0.009441360831260681,-0.02039099670946598,-0.0027561187744140625
118248899893.9005,d4:ca:6e:f1:72:6c,-1.3075817823410034,-0.14146418869495392,-176.31748962402344,-0.018010849133133888,-0.018226971849799156,-0.00022029876708984375
118248916564.2339,d4:ca:6e:f1:72:6c,-1.3072680234909058,-0.1415422409772873,-176.30691528320312,-0.0069718449376523495,-0.022973550483584404,-0.00569915771484375
118248933234.5673,d4:ca:6e:f1:72:6c,-1.3066660165786743,-0.14045695960521698,-176.298095703125,-0.01599404588341713,-0.01726507768034935,-0.011066436767578125
118248949904.90071,d4:ca:6e:f1:72:6c,-1.306596040725708,-0.1398722529411316,-176.28823852539062,-0.01327598188072443,-0.03233553469181061,0.001522064208984375
118248966575.23412,d4:ca:6e:f1:72:6c,-1.3055492639541626,-0.13967178761959076,-176.2786102294922,-0.006856913212686777,-0.010479939170181751,-0.01703357696533203
118248983245.56752,d4:ca:6e:f1:72:6c,-1.3056031465530396,-0.13941776752471924,-176.26873779296875,-0.016555041074752808,-0.020807303488254547,-0.017851829528808594
118248999915.90092,d4:ca:6e:f1:72:6c,-1.3060288429260254,-0.1380738765001297,-176.25819396972656,-0.021443122997879982,-0.0194532573223114,-0.0032567977905273438
118249016586.23433,d4:ca:6e:f1:72:6c,-1.305389404296875,-0.13774552941322327,-176.2467498779297,-0.014621852897107601,-0.022446924820542336,-0.013464927673339844
118249033256.56773,d4:ca:6e:f1:72:6c,-1.3051100969314575,-0.13840100169181824,-176.23623657226562,-0.0013646524166688323,-0.0162031389772892,-0.0016345977783203125
118249049926.90114,d4:ca:6e:f1:72:6c,-1.3041887283325195,-0.13825221359729767,-176.22573852539062,-0.016549911350011826,-0.019532745704054832,-0.0007619857788085938
118249066597.23454,d4:ca:6e:f1:72:6c,-1.302869439125061,-0.1383540779352188,-176.2157745361328,-0.02519785612821579,-0.02083665132522583,-0.010670661926269531
118249083267.56795,d4:ca:6e:f1:72:6c,-1.3016560077667236,-0.13824579119682312,-176.2057342529297,-0.016888318583369255,-0.011300686746835709,-0.011300086975097656
118249099937.90135,d4:ca:6e:f1:72:6c,-1.3013862371444702,-0.13721005618572235,-176.1958770751953,-0.01614321582019329,-0.024934370070695877,-0.009259223937988281
118249116608.23476,d4:ca:6e:f1:72:6c,-1.3019890785217285,-0.13555730879306793,-176.18577575683594,-0.025049466639757156,-0.01893395185470581,-0.014107704162597656
118249133278.56816,d4:ca:6e:f1:72:6c,-1.3026666641235352,-0.13621261715888977,-176.17678833007812,-0.015238065272569656,-0.02006477117538452,-0.014639854431152344
118249149624.2,d4:ca:6e:f1:72:6c,-1.3040683269500732,-0.13619914650917053,-176.16653442382812,-0.02246423251926899,-0.014117627404630184,-0.018342971801757812
118249166294.5334,d4:ca:6e:f1:72:6c,-1.3030143976211548,-0.1357303112745285,-176.15562438964844,-0.007497293408960104,-0.014050261117517948,-0.021244049072265625
118249182964.8668,d4:ca:6e:f1:72:6c,-1.3042620420455933,-0.13526640832424164,-176.1453857421875,-0.019547121599316597,-0.018850553780794144,-0.0048618316650390625
118249199635.20021,d4:ca:6e:f1:72:6c,-1.3042075634002686,-0.13577993214130402,-176.13499450683594,-0.020157992839813232,-0.020629093050956726,-0.014781951904296875
118249216305.53362,d4:ca:6e:f1:72:6c,-1.3038506507873535,-0.1366005539894104,-176.124755859375,-0.014679388143122196,-0.012398145161569118,-0.008520126342773438
118249232975.86702,d4:ca:6e:f1:72:6c,-1.3059728145599365,-0.1373470276594162,-176.1142578125,-0.0159212127327919,-0.026567814871668816,0.0032701492309570312
118249249646.20042,d4:ca:6e:f1:72:6c,-1.3062812089920044,-0.13599026203155518,-176.10385131835938,-0.0107254758477211,-0.01933031529188156,-0.02258586883544922
118249266316.53383,d4:ca:6e:f1:72:6c,-1.3056931495666504,-0.1360780894756317,-176.09327697753906,-0.0006630420102737844,-0.018903354182839394,-0.008696556091308594
118249282986.86723,d4:ca:6e:f1:72:6c,-1.3051795959472656,-0.1352270543575287,-176.0834197998047,-0.01718604378402233,-0.015203801915049553,-0.009046554565429688
118249299657.20064,d4:ca:6e:f1:72:6c,-1.3058099746704102,-0.1351047307252884,-176.07350158691406,-0.015381566248834133,-0.011247060261666775,-0.015081405639648438
118249316327.53404,d4:ca:6e:f1:72:6c,-1.3059464693069458,-0.13515011966228485,-176.0637664794922,-0.015807053074240685,-0.02077849954366684,-0.0028047561645507812
118249332997.86745,d4:ca:6e:f1:72:6c,-1.3050404787063599,-0.13501879572868347,-176.0520477294922,-0.02846434712409973,-0.027164796367287636,-0.0007581710815429688
118249349668.20085,d4:ca:6e:f1:72:6c,-1.3045135736465454,-0.13578492403030396,-176.04075622558594,-0.010193077847361565,-0.01501423493027687,-0.01780986785888672
118249366338.53426,d4:ca:6e:f1:72:6c,-1.3049170970916748,-0.13506723940372467,-176.0303497314453,-0.01452341303229332,-0.018419280648231506,-0.007496833801269531
118249383008.86766,d4:ca:6e:f1:72:6c,-1.3043792247772217,-0.135682612657547,-176.0204315185547,-0.010415385477244854,-0.009300081990659237,-0.004487037658691406
118249399679.20107,d4:ca:6e:f1:72:6c,-1.3034919500350952,-0.13486818969249725,-176.0102996826172,-0.019000068306922913,-0.019695550203323364,-0.0002765655517578125
118249416349.53447,d4:ca:6e:f1:72:6c,-1.3040753602981567,-0.13470472395420074,-175.99966430664062,-0.014377391897141933,-0.00875241681933403,-0.01025390625
118249433019.86787,d4:ca:6e:f1:72:6c,-1.3051928281784058,-0.13416790962219238,-175.9898681640625,-0.023778608068823814,-0.02202650159597397,-0.008692741394042969
118249449690.20128,d4:ca:6e:f1:72:6c,-1.3035556077957153,-0.13442601263523102,-175.9796142578125,-0.009587994776666164,-0.012284265831112862,-0.012502670288085938
118249466360.53468,d4:ca:6e:f1:72:6c,-1.3039791584014893,-0.1337701380252838,-175.96896362304688,-0.02527945302426815,-0.017394525930285454,0.01036834716796875
118249483030.86809,d4:ca:6e:f1:72:6c,-1.3047606945037842,-0.13370028138160706,-175.9581756591797,-0.026628730818629265,-0.01709095388650894,-0.02449321746826172
118249499701.20149,d4:ca:6e:f1:72:6c,-1.3056976795196533,-0.1338755339384079,-175.9478302001953,-0.019448433071374893,-0.016294006258249283,-0.02129364013671875
118249516371.5349,d4:ca:6e:f1:72:6c,-1.3049713373184204,-0.13328708708286285,-175.9382781982422,-0.022335560992360115,-0.019926276057958603,-0.0048007965087890625
118249533041.8683,d4:ca:6e:f1:72:6c,-1.3051650524139404,-0.1325434446334839,-175.92771911621094,-0.02941516414284706,-0.012716942466795444,-0.022670745849609375
118249549712.2017,d4:ca:6e:f1:72:6c,-1.304856538772583,-0.1333351582288742,-175.9165802001953,-0.017041262239217758,-0.016765447333455086,-0.011898040771484375
118249566382.53511,d4:ca:6e:f1:72:6c,-1.3053691387176514,-0.13376456499099731,-175.90609741210938,-0.02763739600777626,-0.022400865331292152,0.0029287338256835938
118249583052.86852,d4:ca:6e:f1:72:6c,-1.3053529262542725,-0.1335320919752121,-175.8955078125,-0.023217080160975456,-0.0186078529804945,-0.010819435119628906
118249599723.20192,d4:ca:6e:f1:72:6c,-1.3047226667404175,-0.13373975455760956,-175.88572692871094,-0.018113236874341965,-0.008495175279676914,-0.01823139190673828
118249616393.53532,d4:ca:6e:f1:72:6c,-1.3045598268508911,-0.13429279625415802,-175.87533569335938,-0.03175656870007515,-0.01695137284696102,-0.0077648162841796875
118249633063.86873,d4:ca:6e:f1:72:6c,-1.3054295778274536,-0.1350003331899643,-175.86439514160156,-0.006387311965227127,-0.02090696059167385,-0.032611846923828125
118249649734.20213,d4:ca:6e:f1:72:6c,-1.3046135902404785,-0.1340784728527069,-175.85507202148438,-0.012266851961612701,-0.030706698074936867,0.006328582763671875
118249666404.53554,d4:ca:6e:f1:72:6c,-1.305004358291626,-0.13388311862945557,-175.8445587158203,-0.03313193842768669,-0.008644131943583488,-0.011020660400390625
118249683074.86894,d4:ca:6e:f1:72:6c,-1.3037705421447754,-0.13380280137062073,-175.8341522216797,-0.025622190907597542,-0.021583769470453262,0.0016155242919921875
118249699745.20235,d4:ca:6e:f1:72:6c,-1.3029831647872925,-0.13600200414657593,-175.82391357421875,-0.01813308335840702,-0.019678106531500816,-0.014998435974121094
118249716415.53575,d4:ca:6e:f1:72:6c,-1.303147554397583,-0.1358211636543274,-175.81375122070312,-0.014510869979858398,-0.016285894438624382,-0.02072429656982422
118249733085.86916,d4:ca:6e:f1:72:6c,-1.3027094602584839,-0.13589714467525482,-175.80421447753906,-0.032047122716903687,-0.028184715658426285,-0.013757705688476562
118249749756.20256,d4:ca:6e:f1:72:6c,-1.3023674488067627,-0.13598763942718506,-175.79376220703125,-0.002962269587442279,-0.012891214340925217,-0.0002384185791015625
118249766426.53596,d4:ca:6e:f1:72:6c,-1.3020522594451904,-0.13783101737499237,-175.7832794189453,-0.015916503965854645,-0.030811823904514313,-0.013768196105957031
118249783096.86937,d4:ca:6e:f1:72:6c,-1.3007214069366455,-0.1388305276632309,-175.7729949951172,-0.014593591913580894,-0.016274316236376762,-0.03591346740722656
118249799767.20277,d4:ca:6e:f1:72:6c,-1.300496220588684,-0.13923634588718414,-175.7631072998047,-0.018849758431315422,-0.023061947897076607,-0.008281707763671875
118249816437.53618,d4:ca:6e:f1:72:6c,-1.3005261421203613,-0.13851334154605865,-175.7531280517578,-0.017723599448800087,-0.014474532566964626,-0.012860298156738281
118249833107.86958,d4:ca:6e:f1:72:6c,-1.3012586832046509,-0.13824334740638733,-175.74171447753906,-0.012624112889170647,-0.019542615860700607,-0.014110565185546875
118249849778.20299,d4:ca:6e:f1:72:6c,-1.302249550819397,-0.13772256672382355,-175.73159790039062,-0.020454898476600647,-0.019311806187033653,-0.032006263732910156
118249866448.53639,d4:ca:6e:f1:72:6c,-1.3023059368133545,-0.138019397854805,-175.72193908691406,-0.015005416236817837,-0.02306186407804489,-0.016201019287109375
118249883118.8698,d4:ca:6e:f1:72:6c,-1.3014165163040161,-0.13980096578598022,-175.71234130859375,-0.008413546718657017,-0.014345956966280937,-0.004857063293457031
118249899789.2032,d4:ca:6e:f1:72:6c,-1.302223801612854,-0.14079785346984863,-175.70120239257812,-0.011047286912798882,-0.011903215199708939,-0.0008935928344726562
118249916459.5366,d4:ca:6e:f1:72:6c,-1.30278480052948,-0.14179423451423645,-175.6914825439453,-0.025626178830862045,-0.014748971909284592,-0.006764411926269531
118249933129.87001,d4:ca:6e:f1:72:6c,-1.3031595945358276,-0.14261704683303833,-175.6815948486328,-0.022249165922403336,-0.01809399574995041,-0.012383460998535156
118249949800.20341,d4:ca:6e:f1:72:6c,-1.3042149543762207,-0.14206624031066895,-175.67088317871094,-0.01015206053853035,-0.008466150611639023,-0.021576881408691406
118249966470.53682,d4:ca:6e:f1:72:6c,-1.3039973974227905,-0.14183580875396729,-175.66012573242188,-0.022955715656280518,-0.013813493773341179,-0.02728748321533203
118249983140.87022,d4:ca:6e:f1:72:6c,-1.3035069704055786,-0.14257781207561493,-175.65077209472656,-0.019357925280928612,-0.020742181688547134,-0.010228157043457031
118249999811.20363,d4:ca:6e:f1:72:6c,-1.3023072481155396,-0.14265143871307373,-175.6407928466797,-0.012467754073441029,-0.008867752738296986,-0.007948875427246094
118250016481.53703,d4:ca:6e:f1:72:6c,-1.3040292263031006,-0.1429520547389984,-175.63050842285156,-0.006418365985155106,-0.019954979419708252,-0.007839202880859375
118250033151.87044,d4:ca:6e:f1:72:6c,-1.302933692932129,-0.14341971278190613,-175.6201171875,-0.015984980389475822,-0.016055626794695854,-0.005535125732421875
118250049822.20384,d4:ca:6e:f1:72:6c,-1.303085207939148,-0.1429058164358139,-175.61053466796875,-0.014887669123709202,-0.02411057986319065,-0.01745128631591797
118250066492.53725,d4:ca:6e:f1:72:6c,-1.3041962385177612,-0.14247052371501923,-175.5998992919922,-0.01697225496172905,-0.008686868473887444,-0.006870269775390625
118250083162.87065,d4:ca:6e:f1:72:6c,-1.3031224012374878,-0.14264461398124695,-175.5892333984375,-0.009038915857672691,-0.01665937528014183,-0.01643657684326172
118250099833.20406,d4:ca:6e:f1:72:6c,-1.3029063940048218,-0.1427266001701355,-175.5791778564453,-0.019851183518767357,-0.022527679800987244,-0.01767253875732422
118250116503.53746,d4:ca:6e:f1:72:6c,-1.3021711111068726,-0.14159579575061798,-175.56886291503906,-0.020546944811940193,-0.022274620831012726,-0.011256217956542969
118250133173.87086,d4:ca:6e:f1:72:6c,-1.3014533519744873,-0.1417311429977417,-175.5595245361328,-0.016192536801099777,-0.00892628449946642,-0.022184371948242188
118250149844.20427,d4:ca:6e:f1:72:6c,-1.3004690408706665,-0.1418159306049347,-175.54940795898438,-0.0044703492894768715,-0.004602790344506502,-0.012416839599609375
118250166514.53767,d4:ca:6e:f1:72:6c,-1.300714135169983,-0.14190471172332764,-175.53952026367188,-0.012015167623758316,-0.014441649429500103,-0.0022535324096679688
118250183184.87108,d4:ca:6e:f1:72:6c,-1.2997112274169922,-0.1427777111530304,-175.5294952392578,-0.013789629563689232,-0.008177811279892921,-0.003002166748046875
118250199855.20448,d4:ca:6e:f1:72:6c,-1.2992702722549438,-0.14278683066368103,-175.51907348632812,-0.017497435212135315,-0.01780134253203869,-0.02086353302001953
118250216525.53789,d4:ca:6e:f1:72:6c,-1.2989068031311035,-0.14402121305465698,-175.5082244873047,-0.007842587307095528,-0.015833884477615356,-0.0076999664306640625
118250233195.87129,d4:ca:6e:f1:72:6c,-1.2994747161865234,-0.14363665878772736,-175.49810791015625,-0.02496710605919361,-0.0175074003636837,-0.012326240539550781
118250249866.2047,d4:ca:6e:f1:72:6c,-1.299786925315857,-0.14376945793628693,-175.48854064941406,-0.02319929748773575,-0.020355721935629845,-0.00394439697265625
118250266536.5381,d4:ca:6e:f1:72:6c,-1.3004441261291504,-0.14392809569835663,-175.4786834716797,-0.009876007214188576,-0.01310622040182352,-0.010834693908691406
118250283206.8715,d4:ca:6e:f1:72:6c,-1.2988865375518799,-0.14404761791229248,-175.46829223632812,-0.004060440231114626,-0.024828502908349037,-0.01715373992919922
118250299877.20491,d4:ca:6e:f1:72:6c,-1.297812819480896,-0.14359034597873688,-175.45851135253906,-0.01581016182899475,-0.008839841932058334,0.00574493408203125
118250316547.53831,d4:ca:6e:f1:72:6c,-1.2982369661331177,-0.14348472654819489,-175.44886779785156,-0.018675940111279488,-0.03057413175702095,-0.020615577697753906
118250333217.87172,d4:ca:6e:f1:72:6c,-1.2992788553237915,-0.1436091810464859,-175.4390411376953,-0.021107537671923637,-0.01988237351179123,-0.021982192993164062
118250349888.20512,d4:ca:6e:f1:72:6c,-1.29905366897583,-0.14439767599105835,-175.429443359375,-0.01582525484263897,-0.021482262760400772,-0.017667770385742188
118250366558.53853,d4:ca:6e:f1:72:6c,-1.2995052337646484,-0.14415502548217773,-175.41839599609375,-0.03159445896744728,-0.021148355677723885,-0.025577545166015625
118250383228.87193,d4:ca:6e:f1:72:6c,-1.3000895977020264,-0.14394116401672363,-175.4076385498047,-0.013875373639166355,-0.011973055079579353,-0.023654937744140625
118250399899.20534,d4:ca:6e:f1:72:6c,-1.3007144927978516,-0.14444875717163086,-175.3973846435547,-0.01841333881020546,-0.019604474306106567,-0.00514984130859375
118250416569.53874,d4:ca:6e:f1:72:6c,-1.3011142015457153,-0.14292243123054504,-175.3868408203125,-0.01575346291065216,-0.012526744045317173,-0.017992019653320312
118250433239.87215,d4:ca:6e:f1:72:6c,-1.3009775876998901,-0.14245453476905823,-175.37643432617188,-0.01942967064678669,-0.02035350911319256,-0.01982879638671875
118250449910.20555,d4:ca:6e:f1:72:6c,-1.3016269207000732,-0.14228136837482452,-175.36688232421875,-0.010467614978551865,-0.02026200108230114,-0.006630897521972656
118250466580.53896,d4:ca:6e:f1:72:6c,-1.302182674407959,-0.14255939424037933,-175.35696411132812,-0.01157099474221468,-0.025282472372055054,-0.010030746459960938
118250483250.87236,d4:ca:6e:f1:72:6c,-1.3018875122070312,-0.14261072874069214,-175.3457794189453,-0.026966096833348274,-0.02306457981467247,-0.005690574645996094
118250499921.20576,d4:ca:6e:f1:72:6c,-1.302453637123108,-0.1421491801738739,-175.33575439453125,-0.007326776627451181,-0.017355255782604218,-0.010885238647460938
118250516591.53917,d4:ca:6e:f1:72:6c,-1.3034043312072754,-0.142070472240448,-175.32545471191406,-0.015791118144989014,-0.020056292414665222,-0.009501457214355469
118250533261.87257,d4:ca:6e:f1:72:6c,-1.3033002614974976,-0.14161360263824463,-175.31492614746094,-0.01924753189086914,-0.029158303514122963,-0.012172698974609375
118250549932.20598,d4:ca:6e:f1:72:6c,-1.303389072418213,-0.14186958968639374,-175.30319213867188,-0.015434750355780125,-0.010706732980906963,-0.015964508056640625
118250566602.53938,d4:ca:6e:f1:72:6c,-1.3024437427520752,-0.14186224341392517,-175.2926025390625,-0.028911318629980087,-0.024939073249697685,-0.012211799621582031
118250583272.87279,d4:ca:6e:f1:72:6c,-1.3019137382507324,-0.14121289551258087,-175.2820281982422,-0.0180605910718441,-0.01871873065829277,-0.008062362670898438
118250599943.20619,d4:ca:6e:f1:72:6c,-1.301720380783081,-0.14179392158985138,-175.27169799804688,-0.012593180872499943,-0.016395023092627525,-0.016478538513183594
118250616613.5396,d4:ca:6e:f1:72:6c,-1.3011398315429688,-0.14105817675590515,-175.26223754882812,-0.0034386201296001673,-0.01604737713932991,-0.0011301040649414062
118250633283.873,d4:ca:6e:f1:72:6c,-1.3013914823532104,-0.14164869487285614,-175.2520751953125,-0.017354322597384453,-0.014013262465596199,-0.018957138061523438
118250649954.2064,d4:ca:6e:f1:72:6c,-1.3010035753250122,-0.14084772765636444,-175.24200439453125,-0.006852399557828903,-0.01842055283486843,-0.005146980285644531
118250666624.53981,d4:ca:6e:f1:72:6c,-1.3007925748825073,-0.14015993475914001,-175.23190307617188,-0.03170496225357056,-0.026838254183530807,-0.0038242340087890625
118250683294.87321,d4:ca:6e:f1:72:6c,-1.300713062286377,-0.13945603370666504,-175.22120666503906,-0.01724194921553135,-0.002618013182654977,-0.015825271606445312
118250699965.20662,d4:ca:6e:f1:72:6c,-1.300010323524475,-0.1403040885925293,-175.21044921875,-0.03080146759748459,-0.014467954635620117,-0.027410507202148438
118250716635.54002,d4:ca:6e:f1:72:6c,-1.2998576164245605,-0.13993743062019348,-175.20069885253906,-0.01837790384888649,-0.014473985880613327,0.0040149688720703125
118250733305.87343,d4:ca:6e:f1:72:6c,-1.2988202571868896,-0.13971155881881714,-175.1899871826172,-0.03278398513793945,-0.013848378323018551,-0.009954452514648438
118250749976.20683,d4:ca:6e:f1:72:6c,-1.3000731468200684,-0.13994935154914856,-175.17958068847656,-0.020336361601948738,-0.011152273043990135,-0.016046524047851562
118250766646.54024,d4:ca:6e:f1:72:6c,-1.2999873161315918,-0.14065101742744446,-175.16952514648438,-0.012059640139341354,-0.017543483525514603,-0.020183563232421875
118250783316.87364,d4:ca:6e:f1:72:6c,-1.2994170188903809,-0.14051608741283417,-175.15931701660156,-0.03742416575551033,-0.03729437664151192,-0.000865936279296875
118250799947.5,d4:ca:6e:f1:72:6c,-1.2997050285339355,-0.14110997319221497,-175.1494903564453,-0.02067236788570881,-0.004813604522496462,-0.02177715301513672
118250816617.8334,d4:ca:6e:f1:72:6c,-1.3000560998916626,-0.14124952256679535,-175.137451171875,-0.019383708015084267,-0.00919177383184433,-0.01889514923095703
118250833288.16681,d4:ca:6e:f1:72:6c,-1.2987309694290161,-0.14163896441459656,-175.12693786621094,-0.02604721486568451,-0.02585769258439541,-0.022760391235351562
118250849958.50021,d4:ca:6e:f1:72:6c,-1.298337697982788,-0.1422802358865738,-175.11734008789062,-0.013516191393136978,-0.01281975582242012,-0.012251853942871094
118250866628.83362,d4:ca:6e:f1:72:6c,-1.2978109121322632,-0.14302149415016174,-175.10595703125,-0.018359476700425148,-0.011770286597311497,-0.008989334106445312
118250883299.16702,d4:ca:6e:f1:72:6c,-1.2966411113739014,-0.1434982866048813,-175.0955352783203,-0.024116795510053635,-0.006746088154613972,-0.0005464553833007812
118250899969.50043,d4:ca:6e:f1:72:6c,-1.2967331409454346,-0.144310861825943,-175.08473205566406,-0.014699268154799938,-0.024132616817951202,-0.012018203735351562
118250916639.83383,d4:ca:6e:f1:72:6c,-1.2973318099975586,-0.14432956278324127,-175.07382202148438,-0.009490197524428368,-0.01844743639230728,-0.02009296417236328
118250933310.16724,d4:ca:6e:f1:72:6c,-1.2971974611282349,-0.14421552419662476,-175.06353759765625,-0.015334525145590305,-0.009570316411554813,-0.0099639892578125
118250949776.4,d4:ca:6e:f1:72:6c,-1.29661226272583,-0.14455321431159973,-175.0531768798828,-0.02342868782579899,-0.007558644283562899,-0.010637283325195312
118250966446.7334,d4:ca:6e:f1:72:6c,-1.2967801094055176,-0.14548195898532867,-175.04251098632812,-0.02674078196287155,-0.02316748909652233,-0.015496253967285156
118250983117.0668,d4:ca:6e:f1:72:6c,-1.2978434562683105,-0.14548349380493164,-175.03375244140625,-0.010790805332362652,-0.017015311866998672,-0.012157440185546875
118250999787.4002,d4:ca:6e:f1:72:6c,-1.2986934185028076,-0.14656861126422882,-175.0235137939453,-0.016219018027186394,-0.022035880014300346,-0.00006103515625
118251016457.73361,d4:ca:6e:f1:72:6c,-1.2980998754501343,-0.1458638310432434,-175.01348876953125,-0.01007080078125,-0.019214946776628494,-0.020773887634277344
118251033128.06702,d4:ca:6e:f1:72:6c,-1.2976806163787842,-0.14665940403938293,-175.00326538085938,-0.02088797092437744,-0.02044159360229969,-0.005656242370605469
118251049798.40042,d4:ca:6e:f1:72:6c,-1.2971969842910767,-0.1465386003255844,-174.99217224121094,-0.017435088753700256,-0.020737342536449432,-0.01334381103515625
118251066468.73383,d4:ca:6e:f1:72:6c,-1.2983345985412598,-0.14721669256687164,-174.98179626464844,-0.019471170380711555,-0.015895184129476547,-0.017774581909179688
118251083139.06723,d4:ca:6e:f1:72:6c,-1.2973514795303345,-0.1482558399438858,-174.97132873535156,-0.019725516438484192,-0.017291270196437836,-0.00954437255859375
118251099709.399,d4:ca:6e:f1:72:6c,-1.2985323667526245,-0.14821115136146545,-174.96066284179688,-0.011386099271476269,-0.020739847794175148,-0.013884544372558594
118251116379.7324,d4:ca:6e:f1:72:6c,-1.2978181838989258,-0.14877866208553314,-174.9519805908203,-0.022009752690792084,-0.01642593927681446,-0.005702972412109375
118251133050.06581,d4:ca:6e:f1:72:6c,-1.2986739873886108,-0.15003152191638947,-174.94203186035156,-0.00957696046680212,-0.014548410661518574,-0.012022972106933594
118251149720.39922,d4:ca:6e:f1:72:6c,-1.2984850406646729,-0.14973114430904388,-174.93161010742188,-0.01706915907561779,-0.019179556518793106,-0.015555381774902344
118251166390.73262,d4:ca:6e:f1:72:6c,-1.2991642951965332,-0.14851728081703186,-174.92112731933594,-0.021481571719050407,-0.007203610613942146,-0.017867088317871094
118251183061.06602,d4:ca:6e:f1:72:6c,-1.3003689050674438,-0.14881744980812073,-174.90989685058594,-0.011524585075676441,-0.009870241396129131,-0.012154579162597656
118251199731.39943,d4:ca:6e:f1:72:6c,-1.3002015352249146,-0.14995945990085602,-174.89865112304688,-0.027902619913220406,-0.031151486560702324,-0.014272689819335938
118251216401.73283,d4:ca:6e:f1:72:6c,-1.300000548362732,-0.14981044828891754,-174.88865661621094,-0.015453558415174484,-0.016091635450720787,0.0000972747802734375
118251233072.06624,d4:ca:6e:f1:72:6c,-1.3000874519348145,-0.1499035656452179,-174.8782958984375,-0.015986451879143715,-0.005202463828027248,-0.006275177001953125
118251249742.39964,d4:ca:6e:f1:72:6c,-1.2992262840270996,-0.15023887157440186,-174.86911010742188,-0.014425145462155342,-0.021565411239862442,-0.009427070617675781
118251266412.73305,d4:ca:6e:f1:72:6c,-1.3005436658859253,-0.1497335135936737,-174.8584442138672,-0.020285263657569885,-0.018129613250494003,-0.00684356689453125
118251283083.06645,d4:ca:6e:f1:72:6c,-1.3005108833312988,-0.15010541677474976,-174.8482208251953,-0.014706738293170929,-0.021951327100396156,-0.01887989044189453
118251299753.39986,d4:ca:6e:f1:72:6c,-1.2992122173309326,-0.15092240273952484,-174.83726501464844,-0.02267511561512947,-0.014407048001885414,-0.01961517333984375
118251316423.73326,d4:ca:6e:f1:72:6c,-1.300609827041626,-0.15071232616901398,-174.82579040527344,-0.01561610959470272,-0.00977096427232027,-0.014501571655273438
118251333094.06667,d4:ca:6e:f1:72:6c,-1.3006819486618042,-0.1498519778251648,-174.81552124023438,-0.006132334936410189,-0.0017821263754740357,-0.008833885192871094
118251349764.40007,d4:ca:6e:f1:72:6c,-1.3003203868865967,-0.1508357673883438,-174.80557250976562,-0.0279513169080019,-0.011816726066172123,-0.0026607513427734375
118251366434.73347,d4:ca:6e:f1:72:6c,-1.3009380102157593,-0.15077513456344604,-174.7954864501953,-0.009579046629369259,-0.02114642970263958,-0.015733718872070312
118251383105.06688,d4:ca:6e:f1:72:6c,-1.3020323514938354,-0.15015463531017303,-174.78575134277344,-0.00961329322308302,-0.027426252141594887,-0.010158538818359375
118251399775.40028,d4:ca:6e:f1:72:6c,-1.3028396368026733,-0.14966066181659698,-174.77540588378906,-0.02393120713531971,-0.025692733004689217,-0.009538650512695312
118251416445.73369,d4:ca:6e:f1:72:6c,-1.3035672903060913,-0.14942462742328644,-174.76455688476562,-0.01898454874753952,-0.01653875783085823,-0.0014410018920898438
118251433116.0671,d4:ca:6e:f1:72:6c,-1.3042296171188354,-0.14946843683719635,-174.75360107421875,-0.01481968816369772,-0.016317397356033325,-0.030267715454101562
118251449786.4005,d4:ca:6e:f1:72:6c,-1.3055088520050049,-0.14890088140964508,-174.7436981201172,-0.025374822318553925,-0.01723603345453739,0.012879371643066406
118251466456.7339,d4:ca:6e:f1:72:6c,-1.3055784702301025,-0.15023230016231537,-174.73294067382812,-0.018503380939364433,-0.024819761514663696,-0.022064208984375
118251483127.0673,d4:ca:6e:f1:72:6c,-1.305778980255127,-0.14945068955421448,-174.72271728515625,-0.0031980574131011963,-0.020317820832133293,-0.016112327575683594
118251499797.40071,d4:ca:6e:f1:72:6c,-1.3066215515136719,-0.14971359074115753,-174.71282958984375,-0.022051004692912102,-0.01527244970202446,-0.015133857727050781
118251516467.73412,d4:ca:6e:f1:72:6c,-1.3069634437561035,-0.14931881427764893,-174.7028350830078,-0.012593568302690983,-0.021166518330574036,0.011180877685546875
118251533138.06752,d4:ca:6e:f1:72:6c,-1.305949330329895,-0.1483386904001236,-174.69354248046875,-0.016881709918379784,-0.0228431336581707,-0.0084228515625
118251549808.40092,d4:ca:6e:f1:72:6c,-1.3053629398345947,-0.1485011875629425,-174.68368530273438,-0.02002977393567562,-0.017634157091379166,-0.02201366424560547
118251566478.73433,d4:ca:6e:f1:72:6c,-1.3046181201934814,-0.1477298140525818,-174.673095703125,-0.013551943004131317,-0.01320570707321167,-0.009928703308105469
118251583149.06773,d4:ca:6e:f1:72:6c,-1.3038078546524048,-0.1474217176437378,-174.66224670410156,-0.01597609557211399,-0.016139190644025803,-0.009695053100585938
118251599819.40114,d4:ca:6e:f1:72:6c,-1.303876519203186,-0.14792752265930176,-174.65126037597656,-0.02276543341577053,-0.023082658648490906,0.0016355514526367188
118251616489.73454,d4:ca:6e:f1:72:6c,-1.304629921913147,-0.15024517476558685,-174.64035034179688,-0.02121574990451336,-0.02491605095565319,-0.02146434783935547
118251633160.06795,d4:ca:6e:f1:72:6c,-1.3053481578826904,-0.15047195553779602,-174.63002014160156,-0.01481354795396328,-0.018959596753120422,-0.01738452911376953
118251649830.40135,d4:ca:6e:f1:72:6c,-1.3046612739562988,-0.15148134529590607,-174.61817932128906,-0.01449699979275465,-0.022653203457593918,-0.009514808654785156
118251666500.73476,d4:ca:6e:f1:72:6c,-1.3063822984695435,-0.15172918140888214,-174.6074981689453,-0.019218847155570984,-0.022888358682394028,-0.0070552825927734375
118251683171.06816,d4:ca:6e:f1:72:6c,-1.3066083192825317,-0.15206913650035858,-174.5972900390625,-0.024886658415198326,-0.020216593518853188,-0.025389671325683594
118251699769.3,d4:ca:6e:f1:72:6c,-1.3065929412841797,-0.15205901861190796,-174.58700561523438,-0.028485877439379692,-0.02490740641951561,-0.0045719146728515625
118251716439.6334,d4:ca:6e:f1:72:6c,-1.3059349060058594,-0.15235941112041473,-174.5769500732422,-0.01985893025994301,-0.019196780398488045,-0.009397506713867188
118251733109.96681,d4:ca:6e:f1:72:6c,-1.3051327466964722,-0.1524161994457245,-174.56593322753906,-0.017428705468773842,-0.02253737486898899,-0.018764495849609375
118251749780.30022,d4:ca:6e:f1:72:6c,-1.3057490587234497,-0.15233419835567474,-174.5553741455078,-0.017819844186306,-0.017242033034563065,-0.0086822509765625
118251766450.63362,d4:ca:6e:f1:72:6c,-1.3039170503616333,-0.1526017040014267,-174.54400634765625,-0.014616631902754307,-0.016025859862565994,-0.015272140502929688
118251783120.96703,d4:ca:6e:f1:72:6c,-1.3044984340667725,-0.1540425717830658,-174.53392028808594,-0.01604168675839901,-0.020410945639014244,-0.020437240600585938
118251799791.30043,d4:ca:6e:f1:72:6c,-1.305674433708191,-0.15389865636825562,-174.52365112304688,-0.01130056194961071,-0.007380353286862373,-0.013785362243652344
118251816461.63383,d4:ca:6e:f1:72:6c,-1.305424451828003,-0.1546436846256256,-174.51344299316406,-0.005555108655244112,-0.01952698640525341,-0.016844749450683594
118251833131.96724,d4:ca:6e:f1:72:6c,-1.3049882650375366,-0.15482951700687408,-174.50294494628906,-0.012261399999260902,-0.03101247549057007,-0.004047393798828125
118251849802.30064,d4:ca:6e:f1:72:6c,-1.3054522275924683,-0.15533964335918427,-174.4937744140625,-0.01909530535340309,-0.004106437787413597,-0.0051250457763671875
118251866472.63405,d4:ca:6e:f1:72:6c,-1.306187629699707,-0.155317023396492,-174.4840087890625,-0.016981251537799835,-0.020734887570142746,-0.009569168090820312
118251883142.96745,d4:ca:6e:f1:72:6c,-1.3063080310821533,-0.15556608140468597,-174.47328186035156,-0.019465414807200432,-0.020809676498174667,-0.011134147644042969
118251899813.30086,d4:ca:6e:f1:72:6c,-1.305019497871399,-0.15540364384651184,-174.4631805419922,-0.005221200175583363,-0.01730123534798622,-0.012050628662109375
118251916483.63426,d4:ca:6e:f1:72:6c,-1.305710792541504,-0.15566927194595337,-174.4530792236328,-0.010424025356769562,-0.015768898651003838,-0.011949539184570312
118251933153.96767,d4:ca:6e:f1:72:6c,-1.305526614189148,-0.15628010034561157,-174.44253540039062,-0.01829821616411209,-0.008028040640056133,0.004187583923339844
118251949824.30107,d4:ca:6e:f1:72:6c,-1.3060662746429443,-0.15633733570575714,-174.43223571777344,-0.019994432106614113,-0.01889215037226677,-0.017818450927734375
118251966494.63448,d4:ca:6e:f1:72:6c,-1.3063939809799194,-0.15682503581047058,-174.42234802246094,-0.013866658322513103,-0.018428431823849678,-0.004294395446777344
118251983164.96788,d4:ca:6e:f1:72:6c,-1.3062394857406616,-0.1567353904247284,-174.41233825683594,-0.018833061680197716,-0.03145098686218262,-0.0071125030517578125
118251999835.30128,d4:ca:6e:f1:72:6c,-1.3059979677200317,-0.1567523181438446,-174.4022979736328,-0.014195027761161327,-0.02278047800064087,-0.015570640563964844
118252016505.63469,d4:ca:6e:f1:72:6c,-1.3049947023391724,-0.1568690538406372,-174.39328002929688,-0.01887631230056286,-0.0206119604408741,-0.014805793762207031
118252033175.9681,d4:ca:6e:f1:72:6c,-1.305066466331482,-0.15640924870967865,-174.3826904296875,0.0011985681485384703,-0.005716012325137854,-0.012032508850097656
118252049846.3015,d4:ca:6e:f1:72:6c,-1.3047066926956177,-0.15745402872562408,-174.3722686767578,-0.005672483239322901,-0.014980105683207512,-0.03023529052734375
118252066516.6349,d4:ca:6e:f1:72:6c,-1.3050965070724487,-0.1578029841184616,-174.36219787597656,-0.020721925422549248,-0.015206757932901382,0.003936767578125
118252083186.9683,d4:ca:6e:f1:72:6c,-1.3054568767547607,-0.1578320860862732,-174.35202026367188,-0.009576180949807167,-0.016497932374477386,0.01780986785888672
118252099857.30171,d4:ca:6e:f1:72:6c,-1.3060599565505981,-0.1578180491924286,-174.34219360351562,-0.02650575153529644,-0.01615976355969906,-0.009256362915039062
118252116527.63512,d4:ca:6e:f1:72:6c,-1.3065450191497803,-0.1580142378807068,-174.330810546875,-0.026272395625710487,-0.02446391060948372,-0.004010200500488281
118252133197.96852,d4:ca:6e:f1:72:6c,-1.306260108947754,-0.1577569544315338,-174.32020568847656,-0.009666074067354202,-0.013260282576084137,-0.02898406982421875
118252149868.30193,d4:ca:6e:f1:72:6c,-1.3062012195587158,-0.15865743160247803,-174.30984497070312,-0.016466625034809113,-0.01230182871222496,-0.0071201324462890625
118252166538.63533,d4:ca:6e:f1:72:6c,-1.307111144065857,-0.15883758664131165,-174.2999267578125,-0.01508630346506834,-0.017103277146816254,-0.00008392333984375
118252183208.96873,d4:ca:6e:f1:72:6c,-1.3060530424118042,-0.1594478338956833,-174.28916931152344,-0.014198956079781055,-0.021422628313302994,-0.009688377380371094
118252199879.30214,d4:ca:6e:f1:72:6c,-1.305789589881897,-0.15875986218452454,-174.27906799316406,-0.007885503582656384,-0.025279106572270393,-0.004500389099121094
118252216549.63554,d4:ca:6e:f1:72:6c,-1.3055068254470825,-0.15911175310611725,-174.26937866210938,-0.01777670346200466,-0.015010207891464233,-0.004624366760253906
118252233219.96895,d4:ca:6e:f1:72:6c,-1.3061386346817017,-0.1583745777606964,-174.25942993164062,-0.01057328563183546,-0.013545223511755466,-0.014187812805175781
118252249890.30235,d4:ca:6e:f1:72:6c,-1.3061455488204956,-0.1583442986011505,-174.24948120117188,-0.0076639046892523766,-0.015031237155199051,-0.022530555725097656
118252266560.63576,d4:ca:6e:f1:72:6c,-1.3060927391052246,-0.1579056978225708,-174.23831176757812,-0.015129235573112965,-0.02778676524758339,-0.006500244140625
118252283230.96916,d4:ca:6e:f1:72:6c,-1.3060938119888306,-0.15700405836105347,-174.2281036376953,-0.008073799312114716,-0.0195620097219944,-0.0137481689453125
118252299901.30257,d4:ca:6e:f1:72:6c,-1.3062084913253784,-0.15653613209724426,-174.21658325195312,-0.02038075588643551,-0.007597664836794138,-0.021923065185546875
118252316571.63597,d4:ca:6e:f1:72:6c,-1.305462121963501,-0.1571151167154312,-174.2071533203125,-0.01477904338389635,-0.017842290922999382,0.0027742385864257812
118252333241.96938,d4:ca:6e:f1:72:6c,-1.3063719272613525,-0.1569298803806305,-174.197509765625,-0.013116531074047089,-0.014561225660145283,-0.0017290115356445312
118252349912.30278,d4:ca:6e:f1:72:6c,-1.3059463500976562,-0.15659184753894806,-174.18673706054688,-0.020525645464658737,-0.01712304726243019,-0.007374763488769531
118252366582.63618,d4:ca:6e:f1:72:6c,-1.3059813976287842,-0.15751448273658752,-174.1759796142578,-0.010302353650331497,-0.031664833426475525,-0.02106189727783203
118252383252.96959,d4:ca:6e:f1:72:6c,-1.3064559698104858,-0.15729551017284393,-174.166015625,-0.009014058858156204,-0.010032379999756813,-0.004755973815917969
118252399923.303,d4:ca:6e:f1:72:6c,-1.3066586256027222,-0.1561501920223236,-174.15562438964844,-0.01723662205040455,-0.018991485238075256,-0.013714790344238281
118252416593.6364,d4:ca:6e:f1:72:6c,-1.3072408437728882,-0.15561586618423462,-174.14456176757812,-0.02363245189189911,-0.014051485806703568,-0.013158798217773438
118252433263.9698,d4:ca:6e:f1:72:6c,-1.3078612089157104,-0.1554911732673645,-174.13414001464844,-0.007127142045646906,-0.03668031468987465,-0.021585464477539062
118252449839,d4:ca:6e:f1:72:6c,-1.307907223701477,-0.15569646656513214,-174.1243438720703,-0.01330316811800003,-0.01935938559472561,-0.012231826782226562
118252466509.3334,d4:ca:6e:f1:72:6c,-1.3084771633148193,-0.15532100200653076,-174.1141357421875,-0.01197043713182211,-0.024145202711224556,-0.01723766326904297
118252483179.66681,d4:ca:6e:f1:72:6c,-1.3096797466278076,-0.1542207896709442,-174.1035919189453,-0.013370026834309101,-0.013011221773922443,-0.010999679565429688
118252499850.00021,d4:ca:6e:f1:72:6c,-1.308887243270874,-0.15532521903514862,-174.09402465820312,-0.01165604218840599,-0.02317630872130394,-0.0074672698974609375
118252516520.33362,d4:ca:6e:f1:72:6c,-1.309319019317627,-0.1551317423582077,-174.08328247070312,-0.027515491470694542,-0.022459017112851143,-0.013125419616699219
118252533190.66702,d4:ca:6e:f1:72:6c,-1.309097170829773,-0.15448005497455597,-174.072998046875,-0.00976551603525877,-0.025504816323518753,-0.0048389434814453125
118252549861.00043,d4:ca:6e:f1:72:6c,-1.3084590435028076,-0.15461882948875427,-174.06332397460938,-0.01367932092398405,-0.015025269240140915,-0.014048576354980469
118252566531.33383,d4:ca:6e:f1:72:6c,-1.3086122274398804,-0.15434855222702026,-174.0532684326172,-0.0037650535814464092,-0.024308709427714348,-0.0039348602294921875
118252583201.66724,d4:ca:6e:f1:72:6c,-1.3071144819259644,-0.15463298559188843,-174.04286193847656,-0.007716060150414705,-0.024883002042770386,-0.010094642639160156
118252599595.4,d4:ca:6e:f1:72:6c,-1.3070279359817505,-0.15543299913406372,-174.03297424316406,-0.014224867336452007,-0.009335610084235668,-0.0060939788818359375
118252616265.7334,d4:ca:6e:f1:72:6c,-1.3086357116699219,-0.15483295917510986,-174.02442932128906,-0.020107807591557503,-0.0179503932595253,-0.004870414733886719
118252632936.0668,d4:ca:6e:f1:72:6c,-1.3081398010253906,-0.1544339954853058,-174.01438903808594,-0.007595876697450876,-0.014625413343310356,-0.02138042449951172
118252649606.4002,d4:ca:6e:f1:72:6c,-1.3083100318908691,-0.15519331395626068,-174.0035858154297,-0.007007981184870005,-0.010526051744818687,-0.0023241043090820312
118252666276.73361,d4:ca:6e:f1:72:6c,-1.3074702024459839,-0.15523585677146912,-173.9935302734375,-0.01500680297613144,-0.02165413089096546,-0.012064933776855469
118252682947.06702,d4:ca:6e:f1:72:6c,-1.3061662912368774,-0.15558956563472748,-173.98362731933594,-0.0096000786870718,-0.023876797407865524,-0.011377334594726562
118252699617.40042,d4:ca:6e:f1:72:6c,-1.3054606914520264,-0.15518078207969666,-173.9734649658203,-0.013702413998544216,-0.023797055706381798,-0.010679244995117188
118252716287.73383,d4:ca:6e:f1:72:6c,-1.3047595024108887,-0.15365728735923767,-173.96363830566406,0.003098229179158807,-0.01531086303293705,-0.008713722229003906
118252732958.06723,d4:ca:6e:f1:72:6c,-1.3044003248214722,-0.15412309765815735,-173.9532470703125,-0.019922414794564247,-0.02875370718538761,-0.013512611389160156
118252749628.40063,d4:ca:6e:f1:72:6c,-1.3049389123916626,-0.15508659183979034,-173.94403076171875,-0.007979796268045902,-0.01667638309299946,-0.0069141387939453125
118252766298.73404,d4:ca:6e:f1:72:6c,-1.3050563335418701,-0.15514318645000458,-173.93338012695312,-0.0006915473495610058,-0.020481232553720474,-0.014080047607421875
118252782969.06744,d4:ca:6e:f1:72:6c,-1.3045004606246948,-0.15525896847248077,-173.9235382080078,-0.02002781070768833,-0.01221556682139635,-0.011485099792480469
118252799639.40085,d4:ca:6e:f1:72:6c,-1.3042477369308472,-0.1545408070087433,-173.9134063720703,-0.009572935290634632,-0.023133236914873123,-0.017035484313964844
118252816309.73425,d4:ca:6e:f1:72:6c,-1.3051754236221313,-0.15472865104675293,-173.9036102294922,-0.013222811743617058,-0.01980617269873619,-0.023548126220703125
118252832980.06766,d4:ca:6e:f1:72:6c,-1.3046056032180786,-0.1542823165655136,-173.8935546875,-0.014763257466256618,-0.011965018697082996,-0.021414756774902344
118252849650.40106,d4:ca:6e:f1:72:6c,-1.3053981065750122,-0.15538591146469116,-173.88291931152344,-0.023404376581311226,-0.015560446307063103,-0.010256767272949219
118252866320.73447,d4:ca:6e:f1:72:6c,-1.3046311140060425,-0.15425026416778564,-173.87307739257812,-0.009522341191768646,-0.026539411395788193,-0.01954174041748047
118252882991.06787,d4:ca:6e:f1:72:6c,-1.3044990301132202,-0.1537044644355774,-173.86297607421875,-0.018650775775313377,-0.022008098661899567,-0.00691986083984375
118252899661.40128,d4:ca:6e:f1:72:6c,-1.3038610219955444,-0.15404701232910156,-173.85244750976562,-0.030542999505996704,-0.012726634740829468,-0.017248153686523438
118252916331.73468,d4:ca:6e:f1:72:6c,-1.3024486303329468,-0.15445858240127563,-173.8419647216797,-0.016272416338324547,-0.014280864037573338,-0.008009910583496094
118252933002.06808,d4:ca:6e:f1:72:6c,-1.3026130199432373,-0.15447644889354706,-173.8316192626953,-0.01187086757272482,-0.009886354207992554,-0.005146026611328125
118252949672.40149,d4:ca:6e:f1:72:6c,-1.3014777898788452,-0.15420788526535034,-173.8214569091797,-0.016591478139162064,-0.016369175165891647,-0.009613990783691406
118252966342.7349,d4:ca:6e:f1:72:6c,-1.29891037940979,-0.154421865940094,-173.8113555908203,-0.0024454412050545216,-0.029072925448417664,0.00148773193359375
118252983013.0683,d4:ca:6e:f1:72:6c,-1.298971176147461,-0.15423527359962463,-173.80162048339844,-0.019107410684227943,-0.014779536053538322,0.004538536071777344
118252999683.4017,d4:ca:6e:f1:72:6c,-1.2976559400558472,-0.1545444130897522,-173.791015625,-0.01540245208889246,-0.02592678926885128,-0.017087936401367188
118253016353.7351,d4:ca:6e:f1:72:6c,-1.2978363037109375,-0.154539555311203,-173.7803192138672,-0.015219246968626976,-0.014361977577209473,-0.004233360290527344
118253033024.06851,d4:ca:6e:f1:72:6c,-1.2972956895828247,-0.15471933782100677,-173.77011108398438,-0.011474193073809147,-0.020677296444773674,-0.007869720458984375
118253049694.40192,d4:ca:6e:f1:72:6c,-1.2963982820510864,-0.15490923821926117,-173.76026916503906,-0.01749972254037857,-0.015071422792971134,-0.013616561889648438
118253066364.73532,d4:ca:6e:f1:72:6c,-1.2970869541168213,-0.15541870892047882,-173.75076293945312,-0.008547341451048851,-0.02590869925916195,-0.021121978759765625
118253083035.06873,d4:ca:6e:f1:72:6c,-1.2962061166763306,-0.15595413744449615,-173.74061584472656,-0.010474885813891888,-0.009661846794188023,-0.020799636840820312
118253099705.40213,d4:ca:6e:f1:72:6c,-1.2971163988113403,-0.15483205020427704,-173.73043823242188,-0.01683679223060608,-0.01600043848156929,-0.010969161987304688
118253116375.73553,d4:ca:6e:f1:72:6c,-1.297128438949585,-0.1544421911239624,-173.71981811523438,-0.013473743572831154,-0.022665712982416153,-0.005393028259277344
118253133046.06894,d4:ca:6e:f1:72:6c,-1.2965397834777832,-0.15579529106616974,-173.70948791503906,-0.017076021060347557,-0.010183765552937984,-0.02387523651123047
118253149716.40234,d4:ca:6e:f1:72:6c,-1.2975342273712158,-0.1565110981464386,-173.69949340820312,-0.007939370349049568,-0.01916266791522503,-0.00775909423828125
118253166386.73575,d4:ca:6e:f1:72:6c,-1.2965693473815918,-0.1566963940858841,-173.68826293945312,-0.004836361389607191,-0.01824021153151989,-0.005588531494140625
118253183057.06915,d4:ca:6e:f1:72:6c,-1.296997308731079,-0.15765342116355896,-173.67752075195312,-0.006365932524204254,-0.025316469371318817,-0.015387535095214844
118253199727.40256,d4:ca:6e:f1:72:6c,-1.2974865436553955,-0.157563254237175,-173.66683959960938,-0.02394857071340084,-0.015373879112303257,-0.012146949768066406
118253216397.73596,d4:ca:6e:f1:72:6c,-1.2983027696609497,-0.15784157812595367,-173.65582275390625,-0.010997471399605274,-0.012405571527779102,-0.0101470947265625
118253233068.06937,d4:ca:6e:f1:72:6c,-1.298487901687622,-0.1575193852186203,-173.6448974609375,-0.009920386597514153,-0.006554651074111462,-0.03573322296142578
118253249738.40277,d4:ca:6e:f1:72:6c,-1.2997570037841797,-0.15709257125854492,-173.6356658935547,-0.023872461169958115,-0.01670193113386631,0.0041027069091796875
118253266408.73618,d4:ca:6e:f1:72:6c,-1.3003212213516235,-0.15674935281276703,-173.625,-0.004827598109841347,-0.02025659941136837,-0.019150733947753906
118253283079.06958,d4:ca:6e:f1:72:6c,-1.3013432025909424,-0.1570322960615158,-173.614990234375,-0.011829267255961895,-0.014570461586117744,-0.014945030212402344
118253299749.40298,d4:ca:6e:f1:72:6c,-1.301548957824707,-0.1562684178352356,-173.6044464111328,-0.018039150163531303,-0.025096314027905464,-0.003307342529296875
118253316419.73639,d4:ca:6e:f1:72:6c,-1.303504228591919,-0.1562286615371704,-173.59390258789062,-0.01812339946627617,-0.018283993005752563,-0.01891613006591797
118253333090.0698,d4:ca:6e:f1:72:6c,-1.3016304969787598,-0.15543022751808167,-173.58514404296875,-0.026249950751662254,-0.015702812001109123,-0.015761375427246094
118253349760.4032,d4:ca:6e:f1:72:6c,-1.3003977537155151,-0.15602898597717285,-173.5746612548828,-0.00012231047730892897,-0.014894910156726837,-0.023540496826171875
118253366430.7366,d4:ca:6e:f1:72:6c,-1.299664855003357,-0.1555960774421692,-173.5639190673828,-0.009524366818368435,-0.018139135092496872,-0.029363632202148438
118253383101.07,d4:ca:6e:f1:72:6c,-1.2992910146713257,-0.1553678959608078,-173.55380249023438,0.0012014353414997458,-0.013138549402356148,-0.01640605926513672
118253399771.40341,d4:ca:6e:f1:72:6c,-1.2986890077590942,-0.15506374835968018,-173.5436553955078,-0.01918533258140087,-0.00811629556119442,0.0050811767578125
118253416441.73682,d4:ca:6e:f1:72:6c,-1.2977845668792725,-0.15566420555114746,-173.53248596191406,-0.007002027239650488,-0.014952349476516247,-0.01676464080810547
118253433112.07022,d4:ca:6e:f1:72:6c,-1.2970110177993774,-0.15724162757396698,-173.521240234375,-0.03153481334447861,-0.018627900630235672,-0.0016632080078125
118253449782.40363,d4:ca:6e:f1:72:6c,-1.2970246076583862,-0.15714961290359497,-173.5104217529297,-0.024343909695744514,-0.013464677147567272,-0.017978668212890625
118253466452.73703,d4:ca:6e:f1:72:6c,-1.296078085899353,-0.1573144942522049,-173.4997100830078,-0.006219544447958469,-0.0077589466236531734,-0.0040073394775390625
118253483123.07043,d4:ca:6e:f1:72:6c,-1.2967873811721802,-0.1567378044128418,-173.4903106689453,-0.008922179229557514,-0.013818357139825821,-0.0064563751220703125
118253499793.40384,d4:ca:6e:f1:72:6c,-1.295282244682312,-0.1566070020198822,-173.4796905517578,-0.02509910985827446,-0.00807334017008543,0.0010423660278320312
118253516463.73724,d4:ca:6e:f1:72:6c,-1.2962005138397217,-0.15695813298225403,-173.4687042236328,-0.02137703448534012,-0.01952364668250084,-0.0112762451171875
118253533134.07065,d4:ca:6e:f1:72:6c,-1.2966011762619019,-0.15726439654827118,-173.4586944580078,-0.011823456734418869,-0.019289109855890274,-0.007750511169433594
118253549804.40405,d4:ca:6e:f1:72:6c,-1.2954922914505005,-0.15786786377429962,-173.44830322265625,-0.009606902487576008,-0.023186367005109787,-0.02179718017578125
118253566474.73746,d4:ca:6e:f1:72:6c,-1.294792652130127,-0.15908069908618927,-173.4367218017578,-0.02935931459069252,-0.015225150622427464,-0.0167999267578125
118253583145.07086,d4:ca:6e:f1:72:6c,-1.295676589012146,-0.1597025990486145,-173.42604064941406,-0.016723819077014923,-0.009636914357542992,-0.003945350646972656
118253599815.40427,d4:ca:6e:f1:72:6c,-1.297156572341919,-0.15930257737636566,-173.41619873046875,-0.009005377069115639,-0.005569009575992823,-0.010284423828125
118253616485.73767,d4:ca:6e:f1:72:6c,-1.2973541021347046,-0.15973690152168274,-173.40647888183594,-0.02505120448768139,-0.014612521044909954,-0.013091087341308594
118253633156.07108,d4:ca:6e:f1:72:6c,-1.2967138290405273,-0.16086924076080322,-173.39602661132812,-0.00964452140033245,-0.023986371234059334,-0.011403083801269531
118253649772.7,d4:ca:6e:f1:72:6c,-1.2964023351669312,-0.16050270199775696,-173.38645935058594,-0.009040853008627892,-0.01658625900745392,-0.01733875274658203
118253666443.0334,d4:ca:6e:f1:72:6c,-1.297178030014038,-0.16129903495311737,-173.37564086914062,-0.0067445095628499985,-0.02826150692999363,-0.006361961364746094
118253683113.3668,d4:ca:6e:f1:72:6c,-1.2964937686920166,-0.16124895215034485,-173.3656005859375,-0.019944187253713608,-0.012000525370240211,-0.013091087341308594
118253699783.70021,d4:ca:6e:f1:72:6c,-1.2972344160079956,-0.16086943447589874,-173.35459899902344,-0.016258131712675095,-0.01659417897462845,-0.017791748046875
118253716454.03362,d4:ca:6e:f1:72:6c,-1.298323631286621,-0.16194267570972443,-173.3436279296875,-0.019752098247408867,-0.021771596744656563,-0.022481918334960938
118253733124.36702,d4:ca:6e:f1:72:6c,-1.2981324195861816,-0.1622312217950821,-173.33319091796875,-0.007331314031034708,-0.019303657114505768,-0.02946186065673828
118253749794.70042,d4:ca:6e:f1:72:6c,-1.2986072301864624,-0.16232487559318542,-173.32225036621094,-0.018985163420438766,-0.02053416706621647,-0.005894660949707031
118253766465.03383,d4:ca:6e:f1:72:6c,-1.2984178066253662,-0.16164615750312805,-173.31153869628906,-0.010420463979244232,-0.019421596080064774,-0.007867813110351562
118253783135.36723,d4:ca:6e:f1:72:6c,-1.2990341186523438,-0.162411630153656,-173.30078125,0.0028623181860893965,-0.016405794769525528,-0.007185935974121094
118253799805.70064,d4:ca:6e:f1:72:6c,-1.2989975214004517,-0.16222302615642548,-173.29066467285156,-0.012550212442874908,-0.02098401077091694,-0.029850006103515625
118253816476.03404,d4:ca:6e:f1:72:6c,-1.2990379333496094,-0.16232100129127502,-173.2803955078125,-0.005529300309717655,-0.01397099532186985,-0.01611614227294922
118253833146.36745,d4:ca:6e:f1:72:6c,-1.2994444370269775,-0.1620183289051056,-173.27015686035156,-0.02290412411093712,-0.013361070305109024,-0.007853507995605469
118253849816.70085,d4:ca:6e:f1:72:6c,-1.3000770807266235,-0.1627773493528366,-173.25999450683594,-0.0052813091315329075,-0.02208624593913555,-0.019410133361816406
118253866487.03426,d4:ca:6e:f1:72:6c,-1.3014277219772339,-0.1630486696958542,-173.2505340576172,-0.019283931702375412,-0.026767339557409286,-0.01108551025390625
118253883157.36766,d4:ca:6e:f1:72:6c,-1.3021061420440674,-0.16197261214256287,-173.2407684326172,-0.013494872488081455,-0.013715681619942188,-0.021936416625976562
118253899827.70107,d4:ca:6e:f1:72:6c,-1.3011680841445923,-0.16167645156383514,-173.23049926757812,-0.017557725310325623,-0.019188664853572845,-0.013651847839355469
118253916498.03447,d4:ca:6e:f1:72:6c,-1.3016693592071533,-0.16184261441230774,-173.21929931640625,-0.015592237934470177,-0.016893504187464714,-0.0025587081909179688
118253933168.36787,d4:ca:6e:f1:72:6c,-1.3020700216293335,-0.16163967549800873,-173.2098388671875,-0.012080325745046139,-0.004153744783252478,-0.015100479125976562
118253949810.7,d4:ca:6e:f1:72:6c,-1.3032357692718506,-0.16133075952529907,-173.1986541748047,-0.014679420739412308,-0.023027237504720688,-0.005255699157714844
118253966481.0334,d4:ca:6e:f1:72:6c,-1.3029392957687378,-0.16123536229133606,-173.18804931640625,-0.009603453800082207,-0.016012998297810555,-0.0036525726318359375
118253983151.3668,d4:ca:6e:f1:72:6c,-1.3037450313568115,-0.16078098118305206,-173.17733764648438,-0.008433926850557327,-0.013983169570565224,-0.0038213729858398438
118253999821.70021,d4:ca:6e:f1:72:6c,-1.3033418655395508,-0.1612243354320526,-173.16685485839844,-0.009823438711464405,-0.021045207977294922,-0.014355659484863281
118254016492.03362,d4:ca:6e:f1:72:6c,-1.3028709888458252,-0.16126923263072968,-173.1570587158203,-0.013956975191831589,-0.013882585801184177,-0.0074138641357421875
118254033162.36702,d4:ca:6e:f1:72:6c,-1.3034483194351196,-0.16057512164115906,-173.14662170410156,-0.013731710612773895,-0.016351960599422455,-0.014383316040039062
118254049832.70042,d4:ca:6e:f1:72:6c,-1.302840232849121,-0.16113747656345367,-173.1356964111328,-0.008248132653534412,-0.015604504384100437,-0.005742073059082031
118254066503.03383,d4:ca:6e:f1:72:6c,-1.3025645017623901,-0.16158026456832886,-173.12571716308594,-0.0035291307140141726,-0.004120049066841602,-0.008005142211914062
118254083173.36723,d4:ca:6e:f1:72:6c,-1.30250084400177,-0.1616957187652588,-173.1154022216797,-0.020552098751068115,-0.015765126794576645,-0.015439033508300781
118254099843.70064,d4:ca:6e:f1:72:6c,-1.3027458190917969,-0.16115793585777283,-173.10595703125,-0.019104333594441414,-0.019694365561008453,-0.014192581176757812
118254116514.03404,d4:ca:6e:f1:72:6c,-1.3014929294586182,-0.1602829396724701,-173.09567260742188,-0.028259852901101112,-0.028724608942866325,-0.002483367919921875
118254133184.36745,d4:ca:6e:f1:72:6c,-1.3007320165634155,-0.16063177585601807,-173.08534240722656,-0.011889521032571793,-0.017898160964250565,-0.01026153564453125
118254149854.70085,d4:ca:6e:f1:72:6c,-1.301466941833496,-0.16086150705814362,-173.07510375976562,-0.01605640910565853,-0.020394885912537575,-0.013185501098632812
118254166525.03426,d4:ca:6e:f1:72:6c,-1.3023649454116821,-0.16134706139564514,-173.064453125,-0.015937326475977898,-0.017639217898249626,-0.014421463012695312
118254183195.36766,d4:ca:6e:f1:72:6c,-1.3026161193847656,-0.16102074086666107,-173.05467224121094,-0.019694190472364426,-0.0114482706412673,-0.014044761657714844
118254199865.70107,d4:ca:6e:f1:72:6c,-1.3028093576431274,-0.1610926240682602,-173.04383850097656,-0.013440677896142006,-0.022438114508986473,0.00043201446533203125
118254216536.03447,d4:ca:6e:f1:72:6c,-1.30276620388031,-0.16099762916564941,-173.03285217285156,-0.008654681965708733,-0.01410285010933876,-0.009507179260253906
118254233206.36787,d4:ca:6e:f1:72:6c,-1.3014280796051025,-0.1611366868019104,-173.0220489501953,-0.01532511692494154,-0.020282207056879997,-0.0020847320556640625
118254249876.70128,d4:ca:6e:f1:72:6c,-1.3009105920791626,-0.16136451065540314,-173.0107879638672,-0.008259694091975689,-0.024701928719878197,0.0031681060791015625
118254266547.03468,d4:ca:6e:f1:72:6c,-1.3009079694747925,-0.16173066198825836,-172.99990844726562,-0.010636028833687305,-0.004763259086757898,-0.014822006225585938
118254283217.36809,d4:ca:6e:f1:72:6c,-1.299170970916748,-0.16122107207775116,-172.98773193359375,-0.006777930539101362,-0.019642366096377373,0.0016279220581054688
118254299887.70149,d4:ca:6e:f1:72:6c,-1.2978813648223877,-0.16178391873836517,-172.97718811035156,-0.00039728160481899977,-0.020527822896838188,-0.0035772323608398438
118254316558.0349,d4:ca:6e:f1:72:6c,-1.2965781688690186,-0.16169781982898712,-172.96673583984375,-0.005088177043944597,-0.01729618012905121,-0.024153709411621094
118254333228.3683,d4:ca:6e:f1:72:6c,-1.2968573570251465,-0.16193856298923492,-172.95660400390625,-0.00593463983386755,-0.02137402445077896,-0.0005521774291992188
118254349898.7017,d4:ca:6e:f1:72:6c,-1.295318603515625,-0.16215558350086212,-172.94662475585938,-0.023124665021896362,-0.02365221083164215,-0.006976127624511719
118254366569.03511,d4:ca:6e:f1:72:6c,-1.295375943183899,-0.16289618611335754,-172.93629455566406,-0.007332638371735811,-0.022068487480282784,-0.010333061218261719
118254383239.36852,d4:ca:6e:f1:72:6c,-1.295412540435791,-0.16340404748916626,-172.9250946044922,-0.010293963365256786,-0.014187250286340714,-0.015634536743164062
