sep=,
Measurement Mode:,Complete (Euler)
StartTime:,Sat, 12 Mar 2022 16:58:02 GMT
© Xsens Technologies B. V. 2005-2022

Timestamp,Address,Euler_x,Euler_y,Euler_z,FreeAcc_x,FreeAcc_y,FreeAcc_z
120060653630.499,d4:ca:6e:f1:72:6c,-0.6836809515953064,0.9297643303871155,-77.04042053222656,0.010259328410029411,-0.00366392033174634,-0.018917083740234375
120060660017.399,d4:ca:6e:f1:72:6c,-0.6711548566818237,0.9308110475540161,-77.04763793945312,0.018822096288204193,-0.01827661506831646,-0.009758949279785156
120060676687.7324,d4:ca:6e:f1:72:6c,-0.6509816646575928,0.9169021844863892,-77.04572296142578,0.0290451068431139,-0.029680795967578888,-0.018403053283691406
120060684969.5,d4:ca:6e:f1:72:6c,-0.6284112334251404,0.8932381272315979,-77.04216003417969,0.02699374407529831,-0.04719436913728714,0.00562286376953125
120060701639.8334,d4:ca:6e:f1:72:6c,-0.6106921434402466,0.8649872541427612,-77.04019165039062,0.008840796537697315,-0.04810651019215584,-0.008337974548339844
120060718310.16681,d4:ca:6e:f1:72:6c,-0.6002489924430847,0.837785542011261,-77.03729248046875,0.0011162377195432782,-0.028916368260979652,-0.011483192443847656
120060734980.50021,d4:ca:6e:f1:72:6c,-0.5925153493881226,0.8176844716072083,-77.04315948486328,-0.011135387234389782,0.007953052408993244,-0.0066661834716796875
120060751650.83362,d4:ca:6e:f1:72:6c,-0.5878781080245972,0.8088935613632202,-77.04254150390625,-0.024197401478886604,0.013737581670284271,-0.013121604919433594
120060768321.16702,d4:ca:6e:f1:72:6c,-0.5860341787338257,0.8072489500045776,-77.03987884521484,-0.013294041156768799,0.010176269337534904,-0.016521453857421875
120060784991.50043,d4:ca:6e:f1:72:6c,-0.5856978297233582,0.8094402551651001,-77.0360336303711,0.0009014556999318302,-0.009684867225587368,-0.011654853820800781
120060801661.83383,d4:ca:6e:f1:72:6c,-0.5850579738616943,0.8119307160377502,-77.03096771240234,0.014229830354452133,-0.027154292911291122,-0.015168190002441406
120060818332.16724,d4:ca:6e:f1:72:6c,-0.5828134417533875,0.8122514486312866,-77.02947235107422,0.0037244174163788557,-0.022541433572769165,-0.009678840637207031
120060834844.4,d4:ca:6e:f1:72:6c,-0.5805041193962097,0.8118726015090942,-77.02619171142578,0.011250168085098267,-0.02327248454093933,-0.022100448608398438
120060851514.7334,d4:ca:6e:f1:72:6c,-0.5771894454956055,0.8117266297340393,-77.0249252319336,-0.0010693488875404,-0.009667572565376759,-0.013470649719238281
120060868185.0668,d4:ca:6e:f1:72:6c,-0.5747684240341187,0.8120738863945007,-77.02256774902344,-0.020679669454693794,-0.005482836626470089,-0.006266593933105469
120060884855.4002,d4:ca:6e:f1:72:6c,-0.5706996321678162,0.8126213550567627,-77.02025604248047,-0.0042037200182676315,0.001002212637104094,-0.005593299865722656
120060901525.73361,d4:ca:6e:f1:72:6c,-0.5685613751411438,0.8146911859512329,-77.01805114746094,-0.003983468748629093,-0.005339616443961859,-0.0032129287719726562
120060918196.06702,d4:ca:6e:f1:72:6c,-0.5661487579345703,0.8175727128982544,-77.01630401611328,-0.014017741195857525,-0.010070753283798695,-0.014342308044433594
120060934866.40042,d4:ca:6e:f1:72:6c,-0.5639735460281372,0.8209120631217957,-77.01544952392578,-0.003203415544703603,-0.003563141915947199,-0.026968002319335938
120060951536.73383,d4:ca:6e:f1:72:6c,-0.5607974529266357,0.8246761560440063,-77.01176452636719,-0.002256691688671708,-0.012119639664888382,-0.013745307922363281
120060968207.06723,d4:ca:6e:f1:72:6c,-0.558078944683075,0.8275243043899536,-77.00736236572266,0.0033438794780522585,-0.020543459802865982,-0.019809722900390625
120060984704.9,d4:ca:6e:f1:72:6c,-0.5577265024185181,0.8303825259208679,-77.00608825683594,0.00717245414853096,-0.02794945053756237,-0.018980026245117188
120061001375.2334,d4:ca:6e:f1:72:6c,-0.556438148021698,0.8327909111976624,-77.00457763671875,-0.00014807733532506973,-0.024422869086265564,0.00007534027099609375
120061018045.5668,d4:ca:6e:f1:72:6c,-0.5538054704666138,0.8351573348045349,-77.00279998779297,-0.004984038416296244,-0.024389831349253654,-0.014699935913085938
120061034715.9002,d4:ca:6e:f1:72:6c,-0.5506082773208618,0.8379183411598206,-77.0007095336914,-0.02186122164130211,0.000503142480738461,-0.011988639831542969
120061051386.23361,d4:ca:6e:f1:72:6c,-0.5486050844192505,0.8404213786125183,-76.99771118164062,-0.018919924274086952,-0.009577183984220028,-0.020055770874023438
120061068056.56702,d4:ca:6e:f1:72:6c,-0.545048177242279,0.84272700548172,-76.99471282958984,-0.009898439049720764,-0.01726630888879299,-0.021131515502929688
120061084726.90042,d4:ca:6e:f1:72:6c,-0.5426687002182007,0.845922589302063,-76.99227905273438,-0.002993578789755702,-0.014096974395215511,-0.005957603454589844
120061101397.23383,d4:ca:6e:f1:72:6c,-0.5400258898735046,0.8492911458015442,-76.9901123046875,-0.007897467352449894,-0.017168760299682617,-0.011048316955566406
120061118067.56723,d4:ca:6e:f1:72:6c,-0.5371516346931458,0.8518664240837097,-76.9880142211914,-0.006102958228439093,-0.037640731781721115,-0.015532493591308594
120061134737.90063,d4:ca:6e:f1:72:6c,-0.5338475704193115,0.8550559878349304,-76.98538208007812,-0.02356497012078762,-0.016766851767897606,-0.007666587829589844
120061151408.23404,d4:ca:6e:f1:72:6c,-0.5312315821647644,0.8581714630126953,-76.98261260986328,-0.01870827190577984,-0.015416010282933712,-0.0208740234375
120061168078.56744,d4:ca:6e:f1:72:6c,-0.5293435454368591,0.8614069819450378,-76.9802017211914,-0.009338713251054287,-0.0144348768517375,-0.014882087707519531
120061184748.90085,d4:ca:6e:f1:72:6c,-0.5251155495643616,0.8641908764839172,-76.97794342041016,-0.0017530469922348857,-0.028315285220742226,-0.01171875
120061201419.23425,d4:ca:6e:f1:72:6c,-0.5226101279258728,0.8675286173820496,-76.97653198242188,-0.01209170836955309,-0.022314807400107384,-0.012292861938476562
120061218089.56766,d4:ca:6e:f1:72:6c,-0.5208118557929993,0.8712368011474609,-76.97367858886719,-0.0252268947660923,-0.01870802417397499,-0.015215873718261719
120061234759.90106,d4:ca:6e:f1:72:6c,-0.5185672640800476,0.8744046092033386,-76.97110748291016,-0.017313040792942047,-0.009063090197741985,-0.016384124755859375
120061251430.23447,d4:ca:6e:f1:72:6c,-0.515961229801178,0.8775156140327454,-76.9686508178711,-0.02171938866376877,-0.011945835314691067,-0.009739875793457031
120061268100.56787,d4:ca:6e:f1:72:6c,-0.51387619972229,0.8812787532806396,-76.96558380126953,-0.010709944181144238,-0.014950275421142578,-0.005133628845214844
120061284770.90128,d4:ca:6e:f1:72:6c,-0.5115494132041931,0.8844465613365173,-76.96288299560547,-0.015073294751346111,-0.016705844551324844,-0.016790390014648438
120061301441.23468,d4:ca:6e:f1:72:6c,-0.5093573331832886,0.8888479471206665,-76.96095275878906,-0.014998389407992363,-0.021998705342411995,-0.020904541015625
120061318111.56808,d4:ca:6e:f1:72:6c,-0.5064780116081238,0.8929667472839355,-76.95748901367188,-0.015309617854654789,-0.03557725250720978,-0.017393112182617188
120061334781.90149,d4:ca:6e:f1:72:6c,-0.5026564002037048,0.8953989744186401,-76.95573425292969,-0.014770979061722755,-0.026435216888785362,-0.008363723754882812
120061351452.2349,d4:ca:6e:f1:72:6c,-0.4998090863227844,0.8991019129753113,-76.95330047607422,-0.008811243809759617,-0.027583226561546326,-0.017843246459960938
120061368122.5683,d4:ca:6e:f1:72:6c,-0.498367041349411,0.903659999370575,-76.9515609741211,-0.02081330306828022,-0.014500804245471954,-0.01582622528076172
120061384792.9017,d4:ca:6e:f1:72:6c,-0.4958804249763489,0.9072912931442261,-76.94884490966797,-0.027696140110492706,-0.016210678964853287,-0.006591796875
120061401463.2351,d4:ca:6e:f1:72:6c,-0.49412256479263306,0.9111010432243347,-76.94507598876953,-0.0169750414788723,-0.02831272780895233,-0.013666152954101562
120061418133.56851,d4:ca:6e:f1:72:6c,-0.4914141893386841,0.9158766269683838,-76.94175720214844,-0.009916662238538265,-0.030541477724909782,-0.026778221130371094
120061434559.599,d4:ca:6e:f1:72:6c,-0.4889277219772339,0.9196589589118958,-76.93988037109375,-0.007502617314457893,-0.03195895999670029,0.0010843276977539062
120061451229.9324,d4:ca:6e:f1:72:6c,-0.4863717555999756,0.9235240817070007,-76.93673706054688,-0.011797097511589527,-0.03597890958189964,-0.025568008422851562
120061467900.26581,d4:ca:6e:f1:72:6c,-0.48454025387763977,0.9269444346427917,-76.93374633789062,-0.008930418640375137,-0.04479601979255676,-0.012421607971191406
120061484570.59921,d4:ca:6e:f1:72:6c,-0.4836168885231018,0.9305850267410278,-76.93212127685547,-0.009763381443917751,-0.03975145146250725,-0.006999969482421875
120061501240.93262,d4:ca:6e:f1:72:6c,-0.48062407970428467,0.9337602853775024,-76.93067169189453,-0.008645948953926563,-0.03939106687903404,-0.015638351440429688
120061517911.26602,d4:ca:6e:f1:72:6c,-0.4778706133365631,0.9354503154754639,-76.92882537841797,-0.031502626836299896,-0.032769326120615005,-0.0100860595703125
120061534581.59943,d4:ca:6e:f1:72:6c,-0.47456544637680054,0.9378780722618103,-76.92793273925781,-0.018291035667061806,-0.04507240653038025,-0.000946044921875
120061551251.93283,d4:ca:6e:f1:72:6c,-0.4711081385612488,0.9414287805557251,-76.92500305175781,-0.03056938573718071,-0.038794536143541336,-0.007245063781738281
120061567922.26624,d4:ca:6e:f1:72:6c,-0.4688422381877899,0.9447031021118164,-76.92206573486328,-0.02471829764544964,-0.012491009198129177,-0.0010328292846679688
120061584592.59964,d4:ca:6e:f1:72:6c,-0.46645471453666687,0.9480713605880737,-76.91957092285156,-0.02173345722258091,-0.03137163445353508,-0.004975318908691406
120061601262.93304,d4:ca:6e:f1:72:6c,-0.46514832973480225,0.9512472748756409,-76.91789245605469,-0.002731097862124443,-0.05007835477590561,-0.025753021240234375
120061617933.26645,d4:ca:6e:f1:72:6c,-0.46297910809516907,0.9554027915000916,-76.91764068603516,-0.009857201017439365,-0.04112185910344124,0.014088630676269531
120061634603.59985,d4:ca:6e:f1:72:6c,-0.46064621210098267,0.9580506682395935,-76.9173583984375,-0.01054432149976492,-0.04927493631839752,-0.02634906768798828
120061651273.93326,d4:ca:6e:f1:72:6c,-0.45730000734329224,0.9609217047691345,-76.91605377197266,-0.010566973127424717,-0.04728899896144867,-0.021825790405273438
120061667944.26666,d4:ca:6e:f1:72:6c,-0.45397236943244934,0.9641537666320801,-76.91498565673828,-0.02900785394012928,-0.05108315125107765,-0.008691787719726562
120061684614.60007,d4:ca:6e:f1:72:6c,-0.45128917694091797,0.9664464592933655,-76.91378021240234,-0.021914934739470482,-0.033635206520557404,-0.010001182556152344
120061701284.93347,d4:ca:6e:f1:72:6c,-0.44817134737968445,0.9694123864173889,-76.91226196289062,-0.03478970006108284,-0.01914997585117817,-0.008244514465332031
120061717955.26688,d4:ca:6e:f1:72:6c,-0.4466639757156372,0.9735093116760254,-76.90994262695312,-0.03775675222277641,-0.02208891697227955,-0.010735511779785156
120061734230.299,d4:ca:6e:f1:72:6c,-0.4438396692276001,0.977668821811676,-76.90560913085938,-0.014835714362561703,-0.044709235429763794,-0.019590377807617188
120061750900.6324,d4:ca:6e:f1:72:6c,-0.4419606328010559,0.9805153012275696,-76.90203857421875,-0.0007071670261211693,-0.0665971040725708,-0.014134407043457031
120061767570.9658,d4:ca:6e:f1:72:6c,-0.4407954514026642,0.9839343428611755,-76.90210723876953,0.0033047159668058157,-0.09091275930404663,-0.01735210418701172
120061784241.29921,d4:ca:6e:f1:72:6c,-0.4379947781562805,0.9864429235458374,-76.90177154541016,-0.004458412993699312,-0.07453402876853943,-0.011899948120117188
120061800911.63261,d4:ca:6e:f1:72:6c,-0.4365570545196533,0.9889513254165649,-76.90185546875,-0.02984624356031418,-0.034291427582502365,-0.0061664581298828125
120061817581.96602,d4:ca:6e:f1:72:6c,-0.432745099067688,0.9925673604011536,-76.90182495117188,-0.03506987541913986,-0.0385407954454422,-0.0268096923828125
120061834252.29942,d4:ca:6e:f1:72:6c,-0.4307660758495331,0.9953438639640808,-76.9005126953125,-0.03709845617413521,-0.02764156088232994,-0.014513969421386719
120061850922.63283,d4:ca:6e:f1:72:6c,-0.4321657121181488,0.9960107207298279,-76.89867401123047,-0.04984985664486885,-0.03722187131643295,-0.09940338134765625
120061867592.96623,d4:ca:6e:f1:72:6c,-0.42960336804389954,0.99831622838974,-76.89837646484375,-0.00924676563590765,-0.05846904218196869,0.13056182861328125
120061884263.29964,d4:ca:6e:f1:72:6c,-0.4288891553878784,1.0025478601455688,-76.89540100097656,-0.01944631151854992,-0.03781570494174957,-0.00960540771484375
120061900933.63304,d4:ca:6e:f1:72:6c,-0.42648249864578247,1.0057801008224487,-76.8928451538086,-0.02453240565955639,-0.056658223271369934,-0.08931827545166016
120061917603.96645,d4:ca:6e:f1:72:6c,-0.424633651971817,1.0073689222335815,-76.89109802246094,-0.011278359219431877,-0.048137370496988297,0.043216705322265625
120061934274.29985,d4:ca:6e:f1:72:6c,-0.42249032855033875,1.0105838775634766,-76.88900756835938,-0.026394972577691078,-0.04445289075374603,-0.02349567413330078
120061950944.63326,d4:ca:6e:f1:72:6c,-0.42063596844673157,1.0132650136947632,-76.88895416259766,-0.01722622662782669,-0.038066040724515915,-0.02557659149169922
120061967614.96666,d4:ca:6e:f1:72:6c,-0.42031753063201904,1.0159327983856201,-76.88670349121094,-0.014296719804406166,-0.06785617768764496,0.01172637939453125
120061984285.30006,d4:ca:6e:f1:72:6c,-0.41689151525497437,1.0198198556900024,-76.88451385498047,-0.03445998951792717,-0.06407781690359116,0.038677215576171875
120062000955.63347,d4:ca:6e:f1:72:6c,-0.4162569046020508,1.0214581489562988,-76.8811264038086,-0.017053745687007904,-0.0627518743276596,-0.08651447296142578
120062017625.96687,d4:ca:6e:f1:72:6c,-0.4145565629005432,1.0238419771194458,-76.88041687011719,-0.003107437863945961,-0.031200086697936058,0.0029811859130859375
120062034296.30028,d4:ca:6e:f1:72:6c,-0.4144366681575775,1.026251196861267,-76.87935638427734,-0.02344629168510437,-0.05850856751203537,-0.007716178894042969
120062050966.63368,d4:ca:6e:f1:72:6c,-0.412745863199234,1.0280253887176514,-76.8780517578125,-0.03333507850766182,-0.06279733031988144,-0.03049945831298828
120062067636.96709,d4:ca:6e:f1:72:6c,-0.4110756814479828,1.0289982557296753,-76.87637329101562,-0.03310959413647652,-0.057639382779598236,0.007447242736816406
120062084307.30049,d4:ca:6e:f1:72:6c,-0.40873339772224426,1.0324759483337402,-76.87471771240234,-0.030713027343153954,-0.05118061229586601,-0.004817008972167969
120062100977.6339,d4:ca:6e:f1:72:6c,-0.4072203040122986,1.0345028638839722,-76.8725357055664,-0.006866932846605778,-0.05620903894305229,-0.03496551513671875
120062117647.9673,d4:ca:6e:f1:72:6c,-0.40501973032951355,1.0367237329483032,-76.87328338623047,-0.025770917534828186,-0.06867890805006027,0.009990692138671875
120062134318.3007,d4:ca:6e:f1:72:6c,-0.4024978578090668,1.0400011539459229,-76.8731689453125,-0.029616618528962135,-0.06167338415980339,-0.03560352325439453
120062150988.63411,d4:ca:6e:f1:72:6c,-0.4014293849468231,1.0411652326583862,-76.87420654296875,-0.0354425273835659,-0.05457476153969765,-0.02354145050048828
120062167658.96751,d4:ca:6e:f1:72:6c,-0.4004155397415161,1.0429877042770386,-76.87494659423828,-0.022132456302642822,-0.061042748391628265,0.014349937438964844
120062184329.30092,d4:ca:6e:f1:72:6c,-0.3972313106060028,1.045932650566101,-76.87437438964844,-0.02971750684082508,-0.07374376058578491,-0.016254425048828125
120062200999.63432,d4:ca:6e:f1:72:6c,-0.3938952684402466,1.0483992099761963,-76.87479400634766,-0.03501870483160019,-0.05123065039515495,-0.006671905517578125
120062217669.96773,d4:ca:6e:f1:72:6c,-0.3895237445831299,1.0501056909561157,-76.87388610839844,-0.020962491631507874,-0.05275801196694374,0.016709327697753906
120062234340.30113,d4:ca:6e:f1:72:6c,-0.38751545548439026,1.0537325143814087,-76.87342834472656,-0.03584187477827072,-0.05213708057999611,-0.03943061828613281
120062251010.63454,d4:ca:6e:f1:72:6c,-0.3849445581436157,1.0563045740127563,-76.87178039550781,-0.03489512950181961,-0.04265099763870239,-0.026261329650878906
120062267680.96794,d4:ca:6e:f1:72:6c,-0.38158470392227173,1.0587046146392822,-76.87115478515625,-0.022205384448170662,-0.05750889331102371,0.0034160614013671875
120062284351.30135,d4:ca:6e:f1:72:6c,-0.3811962306499481,1.0617949962615967,-76.87054443359375,-0.018021682277321815,-0.07956773787736893,-0.052501678466796875
120062301021.63475,d4:ca:6e:f1:72:6c,-0.37846988439559937,1.0638388395309448,-76.87150573730469,-0.02486659772694111,-0.0739205926656723,-0.0013103485107421875
120062317691.96815,d4:ca:6e:f1:72:6c,-0.37547412514686584,1.0665010213851929,-76.87123107910156,-0.033637162297964096,-0.06225787103176117,0.00019168853759765625
120062334362.30156,d4:ca:6e:f1:72:6c,-0.3739223778247833,1.06643545627594,-76.86968994140625,-0.045794591307640076,-0.04324182868003845,-0.03682136535644531
120062351032.63496,d4:ca:6e:f1:72:6c,-0.37256813049316406,1.0677566528320312,-76.8683090209961,-0.03400599583983421,-0.0412999726831913,0.01213836669921875
120062367702.96837,d4:ca:6e:f1:72:6c,-0.37121400237083435,1.069427728652954,-76.86656951904297,-0.031019575893878937,-0.04827916994690895,-0.006136894226074219
120062384373.30177,d4:ca:6e:f1:72:6c,-0.3681660592556,1.0711472034454346,-76.86507415771484,-0.03795261308550835,-0.06176719069480896,-0.03648567199707031
120062401043.63518,d4:ca:6e:f1:72:6c,-0.36557215452194214,1.072706699371338,-76.86293029785156,-0.02185099758207798,-0.08297721296548843,0.0048961639404296875
120062417713.96858,d4:ca:6e:f1:72:6c,-0.3655356466770172,1.0746986865997314,-76.86304473876953,-0.02270064689218998,-0.07016509771347046,-0.004486083984375
120062434384.30199,d4:ca:6e:f1:72:6c,-0.36430981755256653,1.0756324529647827,-76.8616714477539,-0.029410358518362045,-0.06764262914657593,-0.015382766723632812
120062451054.63539,d4:ca:6e:f1:72:6c,-0.3628951609134674,1.0771137475967407,-76.86180114746094,-0.035513702780008316,-0.0600413903594017,-0.000858306884765625
120062467724.9688,d4:ca:6e:f1:72:6c,-0.36301594972610474,1.0795432329177856,-76.85986328125,-0.05771930143237114,-0.049297403544187546,-0.017520904541015625
120062484210.6,d4:ca:6e:f1:72:6c,-0.36158886551856995,1.080578088760376,-76.85691833496094,-0.03955148532986641,-0.055224910378456116,-0.027681350708007812
120062500880.93341,d4:ca:6e:f1:72:6c,-0.3605559766292572,1.0813634395599365,-76.85353088378906,-0.041857559233903885,-0.06390295177698135,0.002368927001953125
120062517551.26682,d4:ca:6e:f1:72:6c,-0.36012351512908936,1.0834332704544067,-76.85184478759766,-0.02587675116956234,-0.0711367055773735,-0.008097648620605469
120062534221.60022,d4:ca:6e:f1:72:6c,-0.35884109139442444,1.0858017206192017,-76.8489761352539,-0.01689985580742359,-0.07847525924444199,-0.014632225036621094
120062550891.93362,d4:ca:6e:f1:72:6c,-0.3576703667640686,1.0869451761245728,-76.84737396240234,-0.017439255490899086,-0.0901377722620964,-0.022359848022460938
120062567562.26703,d4:ca:6e:f1:72:6c,-0.3539210557937622,1.0880711078643799,-76.84774017333984,-0.005021058022975922,-0.09312690794467926,-0.02455902099609375
120062584232.60043,d4:ca:6e:f1:72:6c,-0.3524901866912842,1.089694619178772,-76.85005187988281,-0.01681366376578808,-0.07916738092899323,-0.010668754577636719
120062600902.93384,d4:ca:6e:f1:72:6c,-0.6149023175239563,0.7534016966819763,-76.9988784790039,0.00603864248842001,-0.009617891162633896,-0.01218414306640625
120062617573.26724,d4:ca:6e:f1:72:6c,-0.6154448390007019,0.7539745569229126,-77.00011444091797,-0.0005664307391270995,0.004990494344383478,0.000133514404296875
120062633849.6,d4:ca:6e:f1:72:6c,-0.6163044571876526,0.7551697492599487,-77.00196838378906,-0.012196795083582401,0.00030438174144364893,-0.010323524475097656
120062650519.93341,d4:ca:6e:f1:72:6c,-0.6171110272407532,0.7548009157180786,-77.00311279296875,-0.014201873913407326,0.01797497272491455,-0.015867233276367188
120062667190.26682,d4:ca:6e:f1:72:6c,-0.6169412732124329,0.7546616196632385,-77.00460815429688,-0.02366851270198822,0.016958199441432953,-0.01318359375
120062683860.60022,d4:ca:6e:f1:72:6c,-0.6154958605766296,0.7536908388137817,-77.00450897216797,-0.0023877888452261686,0.000029660703148692846,-0.0101165771484375
120062700530.93362,d4:ca:6e:f1:72:6c,-0.6165246367454529,0.7551240921020508,-77.00475311279297,-0.0002756962494459003,0.0020787494722753763,-0.0049686431884765625
120062717201.26703,d4:ca:6e:f1:72:6c,-0.6169648766517639,0.7554930448532104,-77.00454711914062,-0.0000313965865643695,-0.001786538166925311,-0.011551856994628906
120062733871.60043,d4:ca:6e:f1:72:6c,-0.6173332333564758,0.7552860975265503,-77.0043716430664,-0.004677755758166313,0.009937680326402187,-0.009634017944335938
120062750541.93384,d4:ca:6e:f1:72:6c,-0.6166278123855591,0.7555191516876221,-77.00467681884766,-0.00539175420999527,0.007202242035418749,-0.016687393188476562
120062767212.26724,d4:ca:6e:f1:72:6c,-0.6159420013427734,0.7563389539718628,-77.00402069091797,-0.031022675335407257,0.015976037830114365,-0.0240631103515625
120062783882.60065,d4:ca:6e:f1:72:6c,-0.615826427936554,0.7563123106956482,-77.0030517578125,-0.032253947108983994,0.02619282901287079,-0.009857177734375
120062800552.93405,d4:ca:6e:f1:72:6c,-0.6145734786987305,0.7563872933387756,-77.00153350830078,-0.013199551030993462,0.017695603892207146,-0.017274856567382812
120062817223.26746,d4:ca:6e:f1:72:6c,-0.613348662853241,0.7560870051383972,-76.99825286865234,-0.0013026125961914659,0.007634061388671398,-0.019629478454589844
120062833893.60086,d4:ca:6e:f1:72:6c,-0.6143505573272705,0.7560615539550781,-76.99727630615234,0.022715790197253227,-0.017021777108311653,0.00046825408935546875
120062850563.93427,d4:ca:6e:f1:72:6c,-0.6140633821487427,0.7585918307304382,-76.99757385253906,0.05676101893186569,-0.05841511860489845,0.0076389312744140625
120062867234.26767,d4:ca:6e:f1:72:6c,-0.613066554069519,0.7629839777946472,-77.00228881835938,0.05083302780985832,-0.024724436923861504,0.03886127471923828
120062883904.60107,d4:ca:6e:f1:72:6c,-0.6137453317642212,0.7653955221176147,-77.00981903076172,-0.018396925181150436,-0.017223767936229706,-0.10125064849853516
120062900574.93448,d4:ca:6e:f1:72:6c,-0.6149497628211975,0.7638306617736816,-77.0135498046875,-0.06720191240310669,0.00419168034568429,-0.04778289794921875
120062917245.26788,d4:ca:6e:f1:72:6c,-0.6143815517425537,0.7636605501174927,-77.01278686523438,-0.05564078316092491,0.0580269917845726,0.02180767059326172
120062933915.60129,d4:ca:6e:f1:72:6c,-0.6145976781845093,0.7652249336242676,-77.0082015991211,-0.046233780682086945,0.08824189007282257,-0.027048110961914062
120062950585.9347,d4:ca:6e:f1:72:6c,-0.6142079830169678,0.7648435831069946,-77.0036849975586,-0.014173640869557858,0.04540319740772247,-0.025854110717773438
120062967256.2681,d4:ca:6e:f1:72:6c,-0.6150836944580078,0.7637275457382202,-77.00164031982422,0.01814495585858822,-0.0423470214009285,0.017571449279785156
120062983926.6015,d4:ca:6e:f1:72:6c,-0.6163536906242371,0.7638569474220276,-77.00305938720703,0.049942560493946075,-0.0924677848815918,-0.04361915588378906
120063000596.9349,d4:ca:6e:f1:72:6c,-0.613756000995636,0.763776421546936,-77.004638671875,0.045492999255657196,-0.04526060074567795,-0.024702072143554688
120063017267.26831,d4:ca:6e:f1:72:6c,-0.6141383647918701,0.7632179856300354,-77.0044174194336,0.03333721309900284,-0.020056959241628647,0.0074005126953125
120063033937.60172,d4:ca:6e:f1:72:6c,-0.6134801506996155,0.7629566788673401,-77.0051498413086,-0.026069195941090584,0.024172047153115273,-0.016185760498046875
120063050607.93512,d4:ca:6e:f1:72:6c,-0.6144784092903137,0.7618509531021118,-77.0064468383789,-0.043088577687740326,0.04374797269701958,-0.00551605224609375
120063067278.26852,d4:ca:6e:f1:72:6c,-0.6162726879119873,0.763198971748352,-77.00654602050781,-0.03925418481230736,0.02794588729739189,0.0008106231689453125
120063083948.60193,d4:ca:6e:f1:72:6c,-0.6150567531585693,0.7636643052101135,-77.00485229492188,-0.0205437820404768,0.018163150176405907,-0.012244224548339844
120063100618.93533,d4:ca:6e:f1:72:6c,-0.6150772571563721,0.7629550099372864,-77.0013198852539,0.00540508795529604,-0.008546396158635616,-0.004848480224609375
120063117289.26874,d4:ca:6e:f1:72:6c,-0.616332471370697,0.7629798054695129,-76.99952697753906,0.02597571536898613,-0.01781267300248146,-0.018182754516601562
120063133959.60214,d4:ca:6e:f1:72:6c,-0.6185089349746704,0.7636803984642029,-77.00019073486328,0.027722476050257683,-0.02734343893826008,-0.024435043334960938
120063150629.93555,d4:ca:6e:f1:72:6c,-0.6185126304626465,0.7635234594345093,-77.0013198852539,0.015504863113164902,-0.02655169367790222,-0.020194053649902344
120063167300.26895,d4:ca:6e:f1:72:6c,-0.6186192035675049,0.762537956237793,-77.00296020507812,-0.00003111020851065405,-0.0071000042371451855,-0.009340286254882812
120063183970.60236,d4:ca:6e:f1:72:6c,-0.6190661191940308,0.7625495195388794,-77.00233459472656,-0.021884307265281677,0.028392307460308075,-0.018056869506835938
120063200640.93576,d4:ca:6e:f1:72:6c,-0.6195135116577148,0.762431263923645,-77.00257873535156,-0.02721964567899704,0.02285398356616497,-0.02120494842529297
120063217311.26917,d4:ca:6e:f1:72:6c,-0.6203403472900391,0.7624444365501404,-77.0010757446289,-0.011596131138503551,0.008488954044878483,-0.013321876525878906
120063233981.60257,d4:ca:6e:f1:72:6c,-0.6213065981864929,0.7624379396438599,-77.00025177001953,0.007017922587692738,-0.0048959385603666306,-0.023162841796875
120063250651.93597,d4:ca:6e:f1:72:6c,-0.6209373474121094,0.7618941068649292,-76.99889373779297,0.0029388810507953167,-0.011469590477645397,-0.013289451599121094
120063267322.26938,d4:ca:6e:f1:72:6c,-0.620403528213501,0.7623405456542969,-76.99848175048828,0.010657251812517643,-0.014463063329458237,-0.017269134521484375
120063283992.60278,d4:ca:6e:f1:72:6c,-0.6205862164497375,0.7622052431106567,-76.99833679199219,0.014637461863458157,-0.011799232102930546,-0.017391204833984375
120063300662.93619,d4:ca:6e:f1:72:6c,-0.6206225752830505,0.7624914050102234,-76.99933624267578,0.0014085855800658464,-0.0016811388777568936,-0.013630867004394531
120063317333.26959,d4:ca:6e:f1:72:6c,-0.6206995844841003,0.7617499232292175,-77.0000228881836,-0.0168080423027277,0.006072066258639097,-0.008182525634765625
120063334003.603,d4:ca:6e:f1:72:6c,-0.6198291778564453,0.7615689039230347,-76.99939727783203,-0.024657774716615677,0.02378987893462181,-0.005303382873535156
120063350673.9364,d4:ca:6e:f1:72:6c,-0.6194579005241394,0.7617999911308289,-76.99811553955078,-0.014478757046163082,0.009027334861457348,-0.008446693420410156
120063367344.2698,d4:ca:6e:f1:72:6c,-0.6189776659011841,0.7618282437324524,-76.99690246582031,-0.002681897021830082,-0.002916840836405754,-0.0197906494140625
120063384014.60321,d4:ca:6e:f1:72:6c,-0.6194041967391968,0.7615058422088623,-76.99639892578125,0.015126630663871765,-0.010527736507356167,-0.015359878540039062
120063400684.93661,d4:ca:6e:f1:72:6c,-0.6199733018875122,0.760657012462616,-76.99701690673828,0.022330118343234062,-0.01893373392522335,-0.021314620971679688
120063417355.27002,d4:ca:6e:f1:72:6c,-0.6211810111999512,0.7598863244056702,-76.997314453125,0.012320264242589474,-0.012440049089491367,-0.008124351501464844
120063434025.60342,d4:ca:6e:f1:72:6c,-0.6215303540229797,0.7598129510879517,-76.99785614013672,-0.01023182924836874,-0.0016811302630230784,-0.013471603393554688
120063450695.93683,d4:ca:6e:f1:72:6c,-0.6216655969619751,0.7596171498298645,-76.99898529052734,-0.0021923757158219814,0.01994134485721588,-0.02516937255859375
120063467366.27023,d4:ca:6e:f1:72:6c,-0.6215420365333557,0.7592535614967346,-76.99937438964844,-0.021294966340065002,0.024921592324972153,-0.025243759155273438
120063484036.60364,d4:ca:6e:f1:72:6c,-0.6213865280151367,0.7583249807357788,-76.99803161621094,-0.018333405256271362,0.009527210146188736,-0.025705337524414062
120063500706.93704,d4:ca:6e:f1:72:6c,-0.6210935115814209,0.7694632411003113,-76.56251525878906,-0.2786405682563782,0.18113656342029572,0.055660247802734375
120063517377.27045,d4:ca:6e:f1:72:6c,-0.6288303136825562,0.7745621800422668,-75.80302429199219,-0.40684670209884644,-0.6674968600273132,-0.09562492370605469
120063534047.60385,d4:ca:6e:f1:72:6c,-0.6178053021430969,0.7842188477516174,-74.8541030883789,-0.3087518513202667,-1.5650616884231567,0.03525733947753906
120063550717.93726,d4:ca:6e:f1:72:6c,-0.6350957751274109,0.7836784720420837,-73.6799087524414,-0.5319681763648987,-0.5103166103363037,-0.35187339782714844
120063567388.27066,d4:ca:6e:f1:72:6c,-0.6352059245109558,0.792229413986206,-71.65531921386719,-0.43562227487564087,-0.9391576051712036,0.14709186553955078
120063584058.60406,d4:ca:6e:f1:72:6c,-0.7079454064369202,0.6729283928871155,-70.73330688476562,1.8180559873580933,3.7546350955963135,-0.038585662841796875
120063600728.93747,d4:ca:6e:f1:72:6c,-0.6920349597930908,0.6482935547828674,-70.86802673339844,-0.20999011397361755,-0.03722066059708595,0.18665599822998047
120063617399.27087,d4:ca:6e:f1:72:6c,-0.6840095520019531,0.6212185621261597,-70.91849517822266,-0.031034907326102257,-0.043146997690200806,-0.08685588836669922
120063634069.60428,d4:ca:6e:f1:72:6c,-0.6837642192840576,0.6178299784660339,-70.91910552978516,0.00043527749949134886,0.00236224546097219,0.091522216796875
120063650739.93768,d4:ca:6e:f1:72:6c,-0.6827715039253235,0.6187147498130798,-70.91773223876953,0.0038082764949649572,-0.02671150304377079,-0.04414081573486328
120063667410.27109,d4:ca:6e:f1:72:6c,-0.6781365275382996,0.6105833649635315,-70.9251937866211,0.0008112891810014844,0.06741761416196823,-0.020524978637695312
120063683991.1,d4:ca:6e:f1:72:6c,-0.6846340298652649,0.6083056330680847,-70.92695617675781,-0.2500600814819336,-0.2677709460258484,-0.07510948181152344
120063700661.43341,d4:ca:6e:f1:72:6c,-0.668906569480896,0.7410705089569092,-71.6423568725586,-0.0028919223695993423,-0.11288254708051682,-0.32251644134521484
120063717331.76682,d4:ca:6e:f1:72:6c,-0.6719452738761902,0.7971655130386353,-71.65028381347656,0.05890711024403572,0.2804737091064453,0.19464397430419922
120063734002.10022,d4:ca:6e:f1:72:6c,-0.6731802225112915,0.7969872951507568,-71.65125274658203,0.0006578265456482768,0.0049055591225624084,-0.012378692626953125
120063750672.43362,d4:ca:6e:f1:72:6c,-0.6749334931373596,0.7965373396873474,-71.65071105957031,-0.017017368227243423,0.0018840072443708777,-0.000431060791015625
120063767342.76703,d4:ca:6e:f1:72:6c,-0.6754022240638733,0.7967002987861633,-71.650390625,-0.002221411559730768,0.007295229472219944,-0.028962135314941406
120063784013.10043,d4:ca:6e:f1:72:6c,-0.6740627884864807,0.7970239520072937,-71.65031433105469,0.028393926098942757,-0.009714342653751373,-0.01790618896484375
120063800683.43384,d4:ca:6e:f1:72:6c,-0.6720935702323914,0.7960049510002136,-71.6499252319336,0.025032905861735344,-0.02724793739616871,-0.0021181106567382812
120063817353.76724,d4:ca:6e:f1:72:6c,-0.6712011098861694,0.7960036993026733,-71.65013122558594,0.023851489648222923,-0.02516769990324974,-0.008517265319824219
120063834024.10065,d4:ca:6e:f1:72:6c,-0.671712338924408,0.795521080493927,-71.65081024169922,0.013311963528394699,-0.014667940326035023,-0.01611328125
120063850694.43405,d4:ca:6e:f1:72:6c,-0.6715711951255798,0.7949364185333252,-71.65169525146484,0.01237883884459734,-0.009854472242295742,-0.006409645080566406
120063867364.76746,d4:ca:6e:f1:72:6c,-0.6706728935241699,0.794178307056427,-71.65065002441406,-0.00222010537981987,0.0036707136314362288,-0.014347076416015625
120063884035.10086,d4:ca:6e:f1:72:6c,-0.6708829998970032,0.7938950657844543,-71.65027618408203,0.004630301147699356,0.00022030388936400414,-0.01882171630859375
120063900705.43427,d4:ca:6e:f1:72:6c,-0.6709144115447998,0.7931056618690491,-71.64929962158203,0.004019768908619881,-0.0005474893259815872,-0.010134696960449219
120063917375.76767,d4:ca:6e:f1:72:6c,-0.6703230738639832,0.7923858761787415,-71.65011596679688,0.016706695780158043,-0.008227435871958733,-0.015490531921386719
120063934046.10107,d4:ca:6e:f1:72:6c,-0.6684277057647705,0.7929608821868896,-71.65083312988281,0.015596636570990086,-0.019196446985006332,-0.017830848693847656
120063950716.43448,d4:ca:6e:f1:72:6c,-0.6676937937736511,0.7926470637321472,-71.65119171142578,0.011041441932320595,-0.011213917285203934,-0.008162498474121094
120063967386.76788,d4:ca:6e:f1:72:6c,-0.6676391959190369,0.7923598885536194,-71.6519775390625,0.015852803364396095,-0.01997452601790428,-0.01889324188232422
120063984057.10129,d4:ca:6e:f1:72:6c,-0.6679869294166565,0.7919908165931702,-71.65335845947266,-0.0021145653445273638,0.005739114247262478,-0.007023811340332031
120064000727.4347,d4:ca:6e:f1:72:6c,-0.6676937937736511,0.7923119068145752,-71.65311431884766,-0.007386334706097841,-0.011904430575668812,0.0013914108276367188
120064017397.7681,d4:ca:6e:f1:72:6c,-0.6675494909286499,0.7915967106819153,-71.6528549194336,0.0007581210229545832,-0.004634436219930649,-0.01783466339111328
120064034068.1015,d4:ca:6e:f1:72:6c,-0.6687160730361938,0.7918707132339478,-71.65186309814453,0.010379794985055923,-0.008599383756518364,-0.01215362548828125
120064050738.4349,d4:ca:6e:f1:72:6c,-0.6673626899719238,0.7908695936203003,-71.65308380126953,0.014473388902842999,-0.011405307799577713,-0.01684856414794922
120064067408.76831,d4:ca:6e:f1:72:6c,-0.6667563319206238,0.7916175723075867,-71.65351104736328,0.02040070854127407,-0.00893982034176588,-0.008563041687011719
120064084079.10172,d4:ca:6e:f1:72:6c,-0.6666861772537231,0.7921901941299438,-71.65267181396484,0.008190639317035675,-0.010902764275670052,-0.009800910949707031
120064100749.43512,d4:ca:6e:f1:72:6c,-0.6656193137168884,0.7918789386749268,-71.65353393554688,0.006126126740127802,-0.009237061254680157,-0.018073081970214844
120064117419.76852,d4:ca:6e:f1:72:6c,-0.6660165190696716,0.7905096411705017,-71.65382385253906,0.01262238435447216,-0.011862416751682758,-0.0017194747924804688
120064134090.10193,d4:ca:6e:f1:72:6c,-0.6656440496444702,0.7902688980102539,-71.65330505371094,0.0046114493161439896,-0.0021388805471360683,0.0025177001953125
120064150760.43533,d4:ca:6e:f1:72:6c,-0.6647893786430359,0.7911770939826965,-71.65337371826172,0.007796411402523518,-0.011109674349427223,-0.0025148391723632812
120064167430.76874,d4:ca:6e:f1:72:6c,-0.6639310717582703,0.7913041710853577,-71.6527328491211,0.01146449614316225,-0.0013639144599437714,-0.024333953857421875
120064184101.10214,d4:ca:6e:f1:72:6c,-0.6646854877471924,0.7910736799240112,-71.65267181396484,0.021509496495127678,-0.008604105561971664,-0.005896568298339844
120064200771.43555,d4:ca:6e:f1:72:6c,-0.6639034152030945,0.7910669445991516,-71.65167999267578,0.011020299047231674,-0.007733168546110392,-0.0037546157836914062
120064217441.76895,d4:ca:6e:f1:72:6c,-0.6654517650604248,0.7911207675933838,-71.65151977539062,0.012903958559036255,-0.018036246299743652,-0.0020532608032226562
120064234112.10236,d4:ca:6e:f1:72:6c,-0.6636733412742615,0.7921093106269836,-71.65210723876953,0.02235412411391735,-0.015311382710933685,-0.015057563781738281
120064250782.43576,d4:ca:6e:f1:72:6c,-0.6638761758804321,0.7925300002098083,-71.65318298339844,-0.0009295554482378066,-0.014471308328211308,-0.010778427124023438
120064267452.76917,d4:ca:6e:f1:72:6c,-0.6639465093612671,0.7927352786064148,-71.65288543701172,-0.00013448494428303093,-0.00306105543859303,-0.017072677612304688
120064284123.10257,d4:ca:6e:f1:72:6c,-0.6641637682914734,0.791405200958252,-71.65321350097656,0.007022092584520578,0.0060356175526976585,-0.01565074920654297
120064300793.43597,d4:ca:6e:f1:72:6c,-0.6644666194915771,0.7908374667167664,-71.65384674072266,0.004213184118270874,-0.009318539872765541,-0.016305923461914062
120064317463.76938,d4:ca:6e:f1:72:6c,-0.6631632447242737,0.7901700735092163,-71.65357971191406,-0.0006310539320111275,-0.010307757183909416,-0.02158641815185547
120064334134.10278,d4:ca:6e:f1:72:6c,-0.6633831262588501,0.791622519493103,-71.65364074707031,0.01971852220594883,-0.012978061102330685,-0.013885498046875
120064350804.43619,d4:ca:6e:f1:72:6c,-0.6632686257362366,0.7910965085029602,-71.65339660644531,0.020372001454234123,-0.009744644165039062,-0.024505615234375
120064367474.76959,d4:ca:6e:f1:72:6c,-0.6636924743652344,0.7912238240242004,-71.65298461914062,0.0009834988741204143,-0.014017037115991116,-0.018650054931640625
120064384145.103,d4:ca:6e:f1:72:6c,-0.6628384590148926,0.7927439212799072,-71.65357208251953,-0.003777040634304285,-0.002348983194679022,-0.011783599853515625
120064400815.4364,d4:ca:6e:f1:72:6c,-0.6624513268470764,0.7925454378128052,-71.65286254882812,0.0039338767528533936,-0.010840105824172497,-0.00838470458984375
120064417485.7698,d4:ca:6e:f1:72:6c,-0.6619857549667358,0.7942500710487366,-71.65306854248047,0.018036719411611557,-0.007474992889910936,-0.013800621032714844
120064434156.10321,d4:ca:6e:f1:72:6c,-0.6611270308494568,0.7944583296775818,-71.65296936035156,0.015406562946736813,-0.0038871876895427704,-0.023354530334472656
120064450826.43661,d4:ca:6e:f1:72:6c,-0.6620008945465088,0.7942795157432556,-71.653076171875,0.007632841821759939,-0.015100889839231968,-0.005974769592285156
120064467496.77002,d4:ca:6e:f1:72:6c,-0.6617612242698669,0.7946826815605164,-71.6540298461914,0.007590653840452433,-0.018069781363010406,-0.010390281677246094
120064484167.10342,d4:ca:6e:f1:72:6c,-0.6627081036567688,0.7938190698623657,-71.65370178222656,0.01640625298023224,-0.019392646849155426,-0.003337860107421875
120064500837.43683,d4:ca:6e:f1:72:6c,-0.6629887819290161,0.7939597368240356,-71.65396881103516,-0.0006734305643476546,-0.018847638741135597,-0.010195732116699219
120064517507.77023,d4:ca:6e:f1:72:6c,-0.6645165085792542,0.792392373085022,-71.65460968017578,-0.01806720905005932,-0.03521769493818283,-0.0643930435180664
120064534178.10364,d4:ca:6e:f1:72:6c,-0.6664469838142395,0.7897140383720398,-71.65438079833984,-0.011275683529675007,0.0043893977999687195,-0.005085945129394531
120064550848.43704,d4:ca:6e:f1:72:6c,-0.6667772531509399,0.7897801995277405,-71.65515899658203,0.00892513059079647,-0.008198654279112816,0.008120536804199219
120064567518.77045,d4:ca:6e:f1:72:6c,-0.6679509282112122,0.7899652123451233,-71.65554809570312,0.003089347155764699,-0.023332493379712105,-0.014418601989746094
120064583767.6,d4:ca:6e:f1:72:6c,-0.669395923614502,0.7900648713111877,-71.65678405761719,0.013695843517780304,-0.0002869867021217942,-0.024580001831054688
120064600437.93341,d4:ca:6e:f1:72:6c,-0.667750358581543,0.7903624176979065,-71.65719604492188,0.0022849799133837223,-0.016286760568618774,0.014842987060546875
120064617108.26682,d4:ca:6e:f1:72:6c,-0.6672506332397461,0.7901467084884644,-71.65806579589844,-0.004889394622296095,-0.01512056402862072,-0.040557861328125
120064633778.60022,d4:ca:6e:f1:72:6c,-0.667910099029541,0.7888608574867249,-71.65840148925781,-0.004740255884826183,-0.005972124170511961,0.014535903930664062
120064650448.93362,d4:ca:6e:f1:72:6c,-0.6660018563270569,0.7880874872207642,-71.65809631347656,0.010539481416344643,-0.0032948406878858805,-0.008109092712402344
120064667119.26703,d4:ca:6e:f1:72:6c,-0.6668131947517395,0.7882071733474731,-71.65829467773438,-0.022881532087922096,-0.011990107595920563,-0.05109977722167969
120064683789.60043,d4:ca:6e:f1:72:6c,-0.6661789417266846,0.7872011065483093,-71.65794372558594,0.021821876987814903,-0.012368454597890377,0.04979515075683594
120064700459.93384,d4:ca:6e:f1:72:6c,-0.6668448448181152,0.7869899272918701,-71.6580581665039,0.0012092540273442864,0.0019864453934133053,-0.043697357177734375
120064717130.26724,d4:ca:6e:f1:72:6c,-0.6681193113327026,0.7865292429924011,-71.658203125,0.01258524227887392,-0.0038838209584355354,-0.04278755187988281
120064733800.60065,d4:ca:6e:f1:72:6c,-0.6718593239784241,0.7721396088600159,-71.75680541992188,-0.27361610531806946,-0.16934771835803986,0.16827392578125
120064750470.93405,d4:ca:6e:f1:72:6c,-0.6690609455108643,0.7845889925956726,-71.83335876464844,0.2233189195394516,0.1250787377357483,-0.2202739715576172
120064767141.26746,d4:ca:6e:f1:72:6c,-0.6702624559402466,0.781486988067627,-71.83295440673828,0.004725524690002203,-0.0008035836508497596,-0.01948261260986328
120064783811.60086,d4:ca:6e:f1:72:6c,-0.6734356880187988,0.7763317227363586,-71.83190155029297,0.004995074588805437,-0.005673594307154417,-0.0030775070190429688
120064800481.93427,d4:ca:6e:f1:72:6c,-0.6748016476631165,0.7729321718215942,-71.83211517333984,0.027416201308369637,-0.007433787919580936,0.010968208312988281
120064817152.26767,d4:ca:6e:f1:72:6c,-0.7932090759277344,0.8367834687232971,-71.8317642211914,0.14597032964229584,-0.021154195070266724,-0.019865989685058594
120064833822.60107,d4:ca:6e:f1:72:6c,-0.6876675486564636,0.7815553545951843,-71.81217956542969,-0.18721523880958557,-0.0005753118894062936,0.002582550048828125
120064850492.93448,d4:ca:6e:f1:72:6c,-0.6769651174545288,0.7757160067558289,-71.81244659423828,-0.008455034345388412,0.025032246485352516,-0.08408737182617188
120064867163.26788,d4:ca:6e:f1:72:6c,-0.6740936636924744,0.7763530015945435,-71.81159210205078,0.010907739400863647,0.011720097623765469,0.04808807373046875
120064883833.60129,d4:ca:6e:f1:72:6c,-0.6757469177246094,0.7739905118942261,-71.81114959716797,0.0027216195594519377,-0.007829486392438412,-0.08428573608398438
120064900503.9347,d4:ca:6e:f1:72:6c,-0.6761379837989807,0.7721781134605408,-71.8113021850586,0.007562295533716679,-0.0034722352866083384,-0.054375648498535156
120064917174.2681,d4:ca:6e:f1:72:6c,-0.6770333051681519,0.7732221484184265,-71.8116226196289,0.002655759919434786,-0.016612185165286064,0.055713653564453125
120064933844.6015,d4:ca:6e:f1:72:6c,-0.676355242729187,0.7740660309791565,-71.81208801269531,-0.01628386229276657,-0.0008129231864586473,-0.01699352264404297
120064950514.9349,d4:ca:6e:f1:72:6c,-0.6750507354736328,0.7752247452735901,-71.81316375732422,-0.0007338558789342642,-0.0016792432870715857,-0.03202056884765625
120064967185.26831,d4:ca:6e:f1:72:6c,-0.6754567623138428,0.7755308747291565,-71.81348419189453,0.00351030589081347,-0.0164690800011158,0.02474212646484375
120064983855.60172,d4:ca:6e:f1:72:6c,-0.67421954870224,0.7761711478233337,-71.8127212524414,0.0015638712793588638,-0.0045132823288440704,-0.06388568878173828
120065000525.93512,d4:ca:6e:f1:72:6c,-0.6734828948974609,0.7758346199989319,-71.8126220703125,-0.0010191212641075253,-0.016887960955500603,-0.0040836334228515625
120065017196.26852,d4:ca:6e:f1:72:6c,-0.6730049252510071,0.7757607102394104,-71.81279754638672,-0.012331719510257244,0.0005673418054357171,-0.010309219360351562
120065033866.60193,d4:ca:6e:f1:72:6c,-0.6745938658714294,0.774742841720581,-71.81333923339844,-0.004110668785870075,-0.02215949445962906,-0.06686592102050781
120065050536.93533,d4:ca:6e:f1:72:6c,-0.6754400134086609,0.7729727029800415,-71.81344604492188,0.022025924175977707,-0.0026583203580230474,-0.0021085739135742188
120065067207.26874,d4:ca:6e:f1:72:6c,-0.6756936311721802,0.7731004357337952,-71.81349182128906,0.020490627735853195,-0.03339286521077156,-0.031960487365722656
120065083877.60214,d4:ca:6e:f1:72:6c,-0.6748219728469849,0.7717405557632446,-71.81492614746094,0.03107970766723156,-0.027913108468055725,-0.0067806243896484375
120065100547.93555,d4:ca:6e:f1:72:6c,-0.6741646528244019,0.7735211253166199,-71.81768798828125,0.029861846938729286,-0.011639558710157871,0.014664649963378906
120065117218.26895,d4:ca:6e:f1:72:6c,-0.6715573668479919,0.7752151489257812,-71.81970977783203,0.007451335433870554,0.0167028047144413,-0.036248207092285156
120065133888.60236,d4:ca:6e:f1:72:6c,-0.670211911201477,0.7742778658866882,-71.81842041015625,-0.024277662858366966,0.057106032967567444,-0.027001380920410156
120065150558.93576,d4:ca:6e:f1:72:6c,-0.6674131751060486,0.7734277844429016,-71.81539916992188,-0.05540202185511589,0.04423075541853905,0.023212432861328125
120065167229.26917,d4:ca:6e:f1:72:6c,-0.6673147082328796,0.7728274464607239,-71.81111907958984,-0.028570396825671196,0.03127472102642059,-0.039084434509277344
120065183771.899,d4:ca:6e:f1:72:6c,-0.6653338074684143,0.7727437019348145,-71.80608367919922,0.019449623301625252,-0.012883574701845646,0.00028133392333984375
120065200442.2324,d4:ca:6e:f1:72:6c,-0.6655372977256775,0.7729396224021912,-71.80267333984375,0.03784581273794174,-0.0684782862663269,0.021384239196777344
120065217112.56581,d4:ca:6e:f1:72:6c,-0.6662143468856812,0.7732400894165039,-71.80268859863281,0.07148054987192154,-0.10180162638425827,-0.059134483337402344
120065233782.89922,d4:ca:6e:f1:72:6c,-0.666046142578125,0.7729079127311707,-71.80509185791016,0.06213923543691635,-0.053331345319747925,-0.004085540771484375
120065250453.23262,d4:ca:6e:f1:72:6c,-0.6647658944129944,0.7726837992668152,-71.80821990966797,0.01272617094218731,-0.007940324023365974,-0.037138938903808594
120065267123.56602,d4:ca:6e:f1:72:6c,-0.6657124757766724,0.7736228108406067,-71.81121826171875,-0.04403162747621536,0.03747925907373428,-0.01822185516357422
120065283793.89943,d4:ca:6e:f1:72:6c,-0.665465772151947,0.773872435092926,-71.81161499023438,-0.0886278748512268,0.05819116532802582,0.0003261566162109375
120065300464.23283,d4:ca:6e:f1:72:6c,-0.665375828742981,0.775209903717041,-71.80976104736328,-0.07199165970087051,0.056887127459049225,-0.03238677978515625
120065317134.56624,d4:ca:6e:f1:72:6c,-0.6653452515602112,0.7750152349472046,-71.8070068359375,-0.010475486516952515,0.01688886061310768,-0.0418243408203125
120065333804.89964,d4:ca:6e:f1:72:6c,-0.6660728454589844,0.7748897075653076,-71.8049545288086,0.0708668902516365,-0.06558728218078613,-0.014507293701171875
120065350475.23305,d4:ca:6e:f1:72:6c,-0.6664093136787415,0.773647129535675,-71.80438232421875,0.07900238037109375,-0.10986467450857162,-0.026864051818847656
120065367145.56645,d4:ca:6e:f1:72:6c,-0.666400134563446,0.7723703980445862,-71.80732727050781,0.07315660268068314,-0.08730648458003998,-0.02087116241455078
120065383815.89986,d4:ca:6e:f1:72:6c,-0.6659517884254456,0.7744377255439758,-71.81242370605469,0.022826211526989937,-0.04647085815668106,0.008539199829101562
120065400486.23326,d4:ca:6e:f1:72:6c,-0.662301778793335,0.7765744924545288,-71.81645965576172,-0.01390652172267437,0.030190104618668556,0.0038022994995117188
120065417156.56667,d4:ca:6e:f1:72:6c,-0.6625415086746216,0.7777166366577148,-71.8191909790039,-0.06460286676883698,0.09809338301420212,-0.06989002227783203
120065433826.90007,d4:ca:6e:f1:72:6c,-0.6603414416313171,0.7785400748252869,-71.81824493408203,-0.08497799187898636,0.08865511417388916,0.012678146362304688
120065450497.23347,d4:ca:6e:f1:72:6c,-0.6593701839447021,0.7790321707725525,-71.8149185180664,-0.0499398335814476,0.033777400851249695,0.0039081573486328125
120065467167.56688,d4:ca:6e:f1:72:6c,-0.659428596496582,0.7807109951972961,-71.81169891357422,0.008092580363154411,-0.02355443686246872,-0.035498619079589844
120065483837.90028,d4:ca:6e:f1:72:6c,-0.6562224626541138,0.7733423709869385,-71.79821014404297,0.04197276383638382,0.016559043899178505,0.026851654052734375
120065500508.23369,d4:ca:6e:f1:72:6c,-0.6549800634384155,0.7562205195426941,-71.79710388183594,0.06870341300964355,-0.0907650738954544,-0.0446929931640625
120065517178.5671,d4:ca:6e:f1:72:6c,-0.6536404490470886,0.7555623650550842,-71.7986831665039,0.054580915719270706,-0.07662925869226456,-0.028659820556640625
120065533848.9005,d4:ca:6e:f1:72:6c,-0.6531796455383301,0.7548444271087646,-71.8019027709961,0.02548551931977272,-0.02759372442960739,0.0026912689208984375
120065550519.2339,d4:ca:6e:f1:72:6c,-0.6540582180023193,0.7545796632766724,-71.80360412597656,-0.01092496421188116,0.02194810099899769,-0.026742935180664062
120065567189.5673,d4:ca:6e:f1:72:6c,-0.6526906490325928,0.7541863918304443,-71.80396270751953,-0.03758292272686958,0.05219632759690285,-0.011754989624023438
120065583859.90071,d4:ca:6e:f1:72:6c,-0.65278559923172,0.7549010515213013,-71.8033676147461,-0.041989728808403015,0.0447416789829731,0.0032510757446289062
120065600530.23412,d4:ca:6e:f1:72:6c,-0.6540652513504028,0.7519892454147339,-71.80106353759766,-0.028794685378670692,0.00037271089968271554,-0.03206920623779297
120065617200.56752,d4:ca:6e:f1:72:6c,-0.4285544753074646,0.9148367047309875,-73.74432373046875,-2.9755635261535645,-4.230627059936523,-0.30937767028808594
120065633870.90092,d4:ca:6e:f1:72:6c,-0.4388108551502228,0.8534968495368958,-75.34934997558594,2.947312116622925,4.332223892211914,0.30088233947753906
120065650541.23433,d4:ca:6e:f1:72:6c,-0.4340127110481262,0.8535040020942688,-75.34915924072266,0.01900261826813221,-0.10846810042858124,-0.031597137451171875
120065667211.56773,d4:ca:6e:f1:72:6c,-0.4441300332546234,0.8435152173042297,-75.35044860839844,0.02765079401433468,-0.02019709162414074,-0.10469532012939453
120065683881.90114,d4:ca:6e:f1:72:6c,-0.6165082454681396,0.7590518593788147,-75.44417572021484,0.05272005498409271,0.15730802714824677,0.12015247344970703
120065700552.23454,d4:ca:6e:f1:72:6c,-0.6262385845184326,0.7629736661911011,-75.39323425292969,0.28834468126296997,0.4783273935317993,-0.0638723373413086
120065717222.56795,d4:ca:6e:f1:72:6c,-0.6174333691596985,0.7667799592018127,-74.93143463134766,0.32916712760925293,0.41150426864624023,-0.042435646057128906
120065733892.90135,d4:ca:6e:f1:72:6c,-0.6166988611221313,0.7770103812217712,-73.67355346679688,0.04485678672790527,0.5388725996017456,0.05184364318847656
120065750563.23476,d4:ca:6e:f1:72:6c,-0.6288465857505798,0.7774177193641663,-72.20038604736328,-0.2474113553762436,-0.1358472853899002,-0.07252883911132812
120065767233.56816,d4:ca:6e:f1:72:6c,-0.6396715044975281,0.7939944267272949,-70.72270965576172,0.42723336815834045,0.2799113988876343,0.012696266174316406
120065783903.90157,d4:ca:6e:f1:72:6c,-0.616766631603241,0.8085480332374573,-68.61593627929688,0.058486949652433395,0.8042003512382507,0.0067577362060546875
120065800574.23497,d4:ca:6e:f1:72:6c,-0.5305905342102051,0.8585413098335266,-66.46501922607422,0.15877589583396912,0.8394047021865845,0.01869487762451172
120065817244.56837,d4:ca:6e:f1:72:6c,-0.4228690266609192,0.9002377390861511,-64.72843170166016,0.6355416178703308,0.1255861073732376,-0.04910850524902344
120065833914.90178,d4:ca:6e:f1:72:6c,-0.4246608018875122,0.9161369204521179,-63.51211929321289,0.010856945998966694,-0.24343673884868622,0.07304191589355469
120065850585.23518,d4:ca:6e:f1:72:6c,-0.4365033209323883,0.9128631353378296,-62.3560905456543,-0.8262244462966919,-0.6936905980110168,-0.17844295501708984
120065867255.56859,d4:ca:6e:f1:72:6c,-0.6229289770126343,0.8562005758285522,-60.90370559692383,-0.6718464493751526,-0.5438928008079529,-0.19666671752929688
120065883925.902,d4:ca:6e:f1:72:6c,-0.6611340045928955,0.8509364724159241,-59.80213928222656,-0.5994146466255188,-1.4586137533187866,0.13829708099365234
120065900596.2354,d4:ca:6e:f1:72:6c,-0.663847029209137,0.8534448742866516,-59.7236442565918,-0.03875637799501419,-0.5565637946128845,-0.027133941650390625
120065917266.5688,d4:ca:6e:f1:72:6c,-0.6642628908157349,0.8521344661712646,-59.72322082519531,0.045801784843206406,-0.05252300202846527,0.02018260955810547
120065933707.7,d4:ca:6e:f1:72:6c,-0.6646967530250549,0.8519850373268127,-59.72372817993164,0.03494438901543617,-0.03635796532034874,-0.017459869384765625
120065950378.0334,d4:ca:6e:f1:72:6c,-0.665303111076355,0.8503024578094482,-59.725196838378906,0.022818420082330704,-0.01350476499646902,-0.028583526611328125
120065967048.3668,d4:ca:6e:f1:72:6c,-0.6663321256637573,0.8494104743003845,-59.72595977783203,0.028059229254722595,-0.016390381380915642,0.02193927764892578
120065983718.70021,d4:ca:6e:f1:72:6c,-0.6659330129623413,0.8494448065757751,-59.72652816772461,0.022476455196738243,-0.0215101707726717,-0.03003406524658203
120066000389.03362,d4:ca:6e:f1:72:6c,-0.6666146516799927,0.847984790802002,-59.725730895996094,0.021116754040122032,-0.014337059110403061,-0.06728839874267578
120066017059.36702,d4:ca:6e:f1:72:6c,-0.6645334362983704,0.8489810228347778,-59.72523880004883,0.038458313792943954,-0.03561839088797569,0.06837177276611328
120066033729.70042,d4:ca:6e:f1:72:6c,-0.6651715636253357,0.8489965200424194,-59.72462844848633,0.02528991550207138,-0.05650059133768082,-0.03002166748046875
120066050400.03383,d4:ca:6e:f1:72:6c,-0.6664976477622986,0.8477661609649658,-59.72395324707031,0.03978212550282478,-0.04476926103234291,-0.047733306884765625
120066067070.36723,d4:ca:6e:f1:72:6c,-0.66646409034729,0.8478614091873169,-59.72428894042969,0.051333725452423096,-0.03516283631324768,0.019669532775878906
120066083740.70064,d4:ca:6e:f1:72:6c,-0.6653640270233154,0.8479233980178833,-59.72551727294922,0.028718560934066772,-0.03201102837920189,-0.047623634338378906
120066100411.03404,d4:ca:6e:f1:72:6c,-0.6563448905944824,0.8477538824081421,-59.72684097290039,0.018812987953424454,-0.02417593263089657,0.0050983428955078125
120066117081.36745,d4:ca:6e:f1:72:6c,-0.08438635617494583,0.9723836183547974,-59.707950592041016,-0.058771759271621704,0.1392730474472046,0.11681556701660156
120066133751.70085,d4:ca:6e:f1:72:6c,-0.031969740986824036,0.9759961366653442,-59.75673294067383,0.034028612077236176,-0.2985641360282898,-0.04592132568359375
120066150422.03426,d4:ca:6e:f1:72:6c,0.33800217509269714,1.009717345237732,-59.80752182006836,-0.23582349717617035,0.016426505520939827,0.526301383972168
120066167092.36766,d4:ca:6e:f1:72:6c,0.22416366636753082,0.9946587085723877,-59.77873229980469,0.35146814584732056,0.26462969183921814,-1.0043926239013672
120066183762.70107,d4:ca:6e:f1:72:6c,0.02030959539115429,0.9737403988838196,-59.86338424682617,-0.18746791779994965,-0.36869215965270996,0.13869285583496094
120066200433.03447,d4:ca:6e:f1:72:6c,-0.16971082985401154,0.9564995169639587,-60.284828186035156,-0.7530399560928345,-0.9760726690292358,-0.16565322875976562
120066217103.36787,d4:ca:6e:f1:72:6c,-0.44899752736091614,0.9300589561462402,-60.135719299316406,-0.19858145713806152,-0.05133584886789322,0.20956993103027344
120066233773.70128,d4:ca:6e:f1:72:6c,-0.5356548428535461,0.8908420205116272,-59.995296478271484,0.3221379220485687,0.5838502645492554,-0.5924625396728516
120066250444.03468,d4:ca:6e:f1:72:6c,-0.513950526714325,0.9124059081077576,-59.396759033203125,-0.03641963377594948,0.6718900799751282,0.7727060317993164
120066267114.36809,d4:ca:6e:f1:72:6c,-0.5805203318595886,0.8873380422592163,-58.923099517822266,0.9462156295776367,0.8224427103996277,-0.3471031188964844
120066283784.70149,d4:ca:6e:f1:72:6c,-0.6180281639099121,0.8773506283760071,-58.98451614379883,-0.35026732087135315,-0.6615392565727234,0.16004276275634766
120066300455.0349,d4:ca:6e:f1:72:6c,-0.6659634113311768,0.8533692955970764,-58.878116607666016,-0.005770441144704819,-0.0004933096934109926,-0.03568840026855469
120066317125.3683,d4:ca:6e:f1:72:6c,-0.6836280822753906,0.8550981283187866,-57.75074005126953,0.013333595357835293,0.8358272314071655,0.12438011169433594
120066333795.7017,d4:ca:6e:f1:72:6c,-0.6881735324859619,0.8709594011306763,-56.15330123901367,-0.09856607019901276,0.16442090272903442,-0.12493419647216797
120066350466.03511,d4:ca:6e:f1:72:6c,-0.685438334941864,0.8708844780921936,-55.85093307495117,-0.036603257060050964,-1.2361124753952026,0.046433448791503906
120066367136.36852,d4:ca:6e:f1:72:6c,-0.671181857585907,0.877318263053894,-55.79669952392578,-0.07593916356563568,0.017543425783514977,0.16063785552978516
120066383806.70192,d4:ca:6e:f1:72:6c,-0.6006649136543274,0.9006508588790894,-55.80249786376953,-0.0443849079310894,-0.1408703625202179,0.0794363021850586
120066400477.03532,d4:ca:6e:f1:72:6c,-0.6020631194114685,0.8999052047729492,-55.805641174316406,0.1624099612236023,0.13736653327941895,-0.30891990661621094
120066417147.36873,d4:ca:6e:f1:72:6c,-0.6601945757865906,0.8835452198982239,-55.805564880371094,0.005223679356276989,-0.09716489911079407,0.122955322265625
120066433817.70213,d4:ca:6e:f1:72:6c,-0.6612837910652161,0.8821191787719727,-55.585174560546875,0.15443095564842224,0.8517558574676514,-0.03991127014160156
120066450488.03554,d4:ca:6e:f1:72:6c,-0.668010950088501,0.8716567158699036,-54.869964599609375,-0.163910910487175,-0.4228169023990631,0.004216194152832031
120066467158.36894,d4:ca:6e:f1:72:6c,-0.6875361800193787,0.8739046454429626,-54.23060607910156,-0.8106749057769775,-1.1343826055526733,-0.053650856018066406
120066483828.70235,d4:ca:6e:f1:72:6c,-0.7069811820983887,0.80063796043396,-53.43780517578125,0.035155609250068665,-0.24852651357650757,0.16005420684814453
120066500499.03575,d4:ca:6e:f1:72:6c,-0.7308885455131531,0.663330078125,-52.65723419189453,0.2384183704853058,0.5717014670372009,-0.12458610534667969
120066517169.36916,d4:ca:6e:f1:72:6c,-0.7148515582084656,0.6523653864860535,-52.57450485229492,0.5216166973114014,0.054350707679986954,-0.042786598205566406
120066533839.70256,d4:ca:6e:f1:72:6c,-0.7137223482131958,0.6483391523361206,-52.74345016479492,0.022805558517575264,-0.25851473212242126,0.007735252380371094
120066550510.03596,d4:ca:6e:f1:72:6c,-0.734927237033844,0.612040102481842,-53.046871185302734,-0.020811354741454124,-0.4209159314632416,0.02633953094482422
120066567180.36937,d4:ca:6e:f1:72:6c,-0.7637560367584229,0.5589847564697266,-53.529457092285156,0.032474223524332047,-0.016690073534846306,-0.054965972900390625
120066583850.70277,d4:ca:6e:f1:72:6c,-0.8002297878265381,0.5430920124053955,-53.70602798461914,0.33290722966194153,0.3947088420391083,-0.036102294921875
120066600521.03618,d4:ca:6e:f1:72:6c,-0.8828355669975281,0.5093374848365784,-53.53655242919922,-0.10102701932191849,0.3164866268634796,0.034529685974121094
120066617191.36958,d4:ca:6e:f1:72:6c,-1.2894808053970337,0.46751222014427185,-53.379844665527344,0.6698780059814453,0.21973073482513428,0.07489204406738281
120066633861.70299,d4:ca:6e:f1:72:6c,-2.643735408782959,0.4313930869102478,-52.55215835571289,0.6124283671379089,0.5964516997337341,-0.07903766632080078
120066650532.03639,d4:ca:6e:f1:72:6c,-4.451412200927734,0.40753886103630066,-51.66634750366211,1.0336554050445557,0.4216320514678955,0.06071186065673828
120066667202.3698,d4:ca:6e:f1:72:6c,-6.1436567306518555,0.3676530420780182,-51.109466552734375,0.583464503288269,0.15839801728725433,-0.06407356262207031
120066683872.7032,d4:ca:6e:f1:72:6c,-7.009583950042725,0.49574366211891174,-51.02131271362305,0.39613476395606995,0.2158898562192917,0.9380502700805664
120066700543.0366,d4:ca:6e:f1:72:6c,-7.280034065246582,0.5540294051170349,-50.6464729309082,-0.9440006017684937,-1.250369668006897,1.6820993423461914
120066717213.37001,d4:ca:6e:f1:72:6c,-8.061101913452148,0.5295348763465881,-49.626033782958984,-0.6890252828598022,-0.89786297082901,1.6269426345825195
120066733883.70341,d4:ca:6e:f1:72:6c,-8.756186485290527,0.6538605093955994,-48.30207443237305,-0.1004638746380806,-1.172297477722168,1.9555578231811523
120066750554.03682,d4:ca:6e:f1:72:6c,-8.872787475585938,0.6015215516090393,-47.268898010253906,-0.3181871473789215,-0.31102991104125977,1.419600486755371
120066767224.37022,d4:ca:6e:f1:72:6c,-8.841780662536621,0.2690752148628235,-46.79417037963867,-0.04266870766878128,0.2827520966529846,-0.531886100769043
120066783894.70363,d4:ca:6e:f1:72:6c,-9.074420928955078,0.0899566113948822,-47.30195617675781,0.8881629705429077,0.3536761403083801,-0.3235158920288086
120066800565.03703,d4:ca:6e:f1:72:6c,-9.395350456237793,-0.31079694628715515,-47.893856048583984,0.9355162978172302,-0.020361192524433136,1.2586841583251953
120066817235.37044,d4:ca:6e:f1:72:6c,-9.464447021484375,-1.020641803741455,-48.646240234375,-0.16545909643173218,-0.7830505967140198,3.7651968002319336
120066833905.70384,d4:ca:6e:f1:72:6c,-9.363445281982422,-1.7843760251998901,-48.91560745239258,-1.9781779050827026,-1.0481683015823364,5.572144508361816
120066850576.03725,d4:ca:6e:f1:72:6c,-9.279078483581543,-2.614135265350342,-49.28683853149414,-1.831621766090393,-1.1525110006332397,6.935588836669922
120066867246.37065,d4:ca:6e:f1:72:6c,-9.509475708007812,-3.6269679069519043,-49.299190521240234,-0.11395147442817688,-0.9793926477432251,7.179935455322266
120066883916.70406,d4:ca:6e:f1:72:6c,-9.675599098205566,-4.955514907836914,-49.35285568237305,0.33681148290634155,-0.3019842207431793,6.990253448486328
120066900587.03746,d4:ca:6e:f1:72:6c,-9.976805686950684,-6.6398725509643555,-49.63816452026367,0.9294140338897705,-0.7336232662200928,7.73316764831543
120066917257.37086,d4:ca:6e:f1:72:6c,-10.754152297973633,-8.634126663208008,-49.630741119384766,0.24186129868030548,0.5122259855270386,8.390819549560547
120066933927.70427,d4:ca:6e:f1:72:6c,-12.16424560546875,-10.724386215209961,-49.1036262512207,-1.3303158283233643,1.2399734258651733,8.244821548461914
120066950598.03767,d4:ca:6e:f1:72:6c,-13.850696563720703,-12.917057991027832,-48.52220916748047,-0.7527950406074524,1.4154280424118042,7.135087966918945
120066967268.37108,d4:ca:6e:f1:72:6c,-15.378656387329102,-15.310833930969238,-47.87851333618164,-0.7054329514503479,1.8325740098953247,6.160787582397461
120066983899.899,d4:ca:6e:f1:72:6c,-16.712432861328125,-17.913789749145508,-47.07060623168945,-1.4104210138320923,2.418287754058838,4.82789421081543
120067000570.2324,d4:ca:6e:f1:72:6c,-18.295013427734375,-20.68163299560547,-46.251644134521484,-0.9949356317520142,2.6768128871917725,2.4817686080932617
120067017240.56581,d4:ca:6e:f1:72:6c,-20.098377227783203,-23.5646915435791,-45.5681266784668,-1.3966373205184937,2.8385207653045654,1.6347064971923828
120067033910.89922,d4:ca:6e:f1:72:6c,-21.996450424194336,-26.417884826660156,-44.770511627197266,-1.4387181997299194,3.0895578861236572,-0.6548576354980469
120067050581.23262,d4:ca:6e:f1:72:6c,-24.172754287719727,-29.126863479614258,-43.81900405883789,-0.4290854334831238,2.7868950366973877,-3.1013875007629395
120067067251.56602,d4:ca:6e:f1:72:6c,-26.54404067993164,-31.588159561157227,-42.73932647705078,0.3018103837966919,2.2454545497894287,-5.507668495178223
120067083921.89943,d4:ca:6e:f1:72:6c,-28.80419158935547,-33.76531219482422,-41.57139587402344,0.2152814269065857,1.324812889099121,-6.456036567687988
120067100592.23283,d4:ca:6e:f1:72:6c,-30.720394134521484,-35.70907211303711,-40.475406646728516,0.3987080454826355,0.3039907217025757,-7.4448041915893555
120067117262.56624,d4:ca:6e:f1:72:6c,-32.44789505004883,-37.44594192504883,-39.40707778930664,1.727272868156433,-0.48822617530822754,-8.265822410583496
120067133932.89964,d4:ca:6e:f1:72:6c,-34.002906799316406,-38.9150390625,-38.35015869140625,1.778373122215271,-1.0944797992706299,-8.306973457336426
120067150603.23305,d4:ca:6e:f1:72:6c,-35.31474304199219,-40.15634536743164,-37.465641021728516,0.9434977769851685,-1.3403245210647583,-8.704656600952148
120067167273.56645,d4:ca:6e:f1:72:6c,-36.31098175048828,-41.037837982177734,-36.78139114379883,0.6157472729682922,-1.9130373001098633,-9.12024211883545
120067183943.89986,d4:ca:6e:f1:72:6c,-37.05844497680664,-41.52444076538086,-36.29515075683594,1.1218457221984863,-2.380277633666992,-9.09731674194336
120067200614.23326,d4:ca:6e:f1:72:6c,-37.4614372253418,-41.806617736816406,-36.05070495605469,1.7501206398010254,-2.400980234146118,-8.506217956542969
120067217284.56667,d4:ca:6e:f1:72:6c,-37.51036071777344,-41.91938018798828,-35.820072174072266,1.5679184198379517,-2.2313599586486816,-8.001585006713867
120067233954.90007,d4:ca:6e:f1:72:6c,-37.219547271728516,-41.872291564941406,-35.62665939331055,1.1841017007827759,-2.3225228786468506,-8.48891544342041
120067250625.23347,d4:ca:6e:f1:72:6c,-36.6300048828125,-41.605712890625,-35.746925354003906,-0.21118685603141785,-2.457587957382202,-8.084586143493652
120067267295.56688,d4:ca:6e:f1:72:6c,-35.873226165771484,-41.10115432739258,-36.178707122802734,-0.472724586725235,-2.216132164001465,-7.8958659172058105
120067283965.90028,d4:ca:6e:f1:72:6c,-34.9495849609375,-40.26005172729492,-36.59810256958008,0.3500472903251648,-1.6907720565795898,-7.639350891113281
120067300636.23369,d4:ca:6e:f1:72:6c,-33.61997604370117,-39.236488342285156,-37.16392517089844,1.4007506370544434,-1.5911824703216553,-6.450221061706543
120067317306.5671,d4:ca:6e:f1:72:6c,-31.92668914794922,-38.17164993286133,-37.7243766784668,1.350048542022705,-1.3243098258972168,-4.801004409790039
120067333976.9005,d4:ca:6e:f1:72:6c,-29.729475021362305,-37.251304626464844,-38.466041564941406,0.8023930191993713,-1.167203664779663,-4.208710193634033
120067350647.2339,d4:ca:6e:f1:72:6c,-27.350170135498047,-36.26408004760742,-39.334007263183594,-0.6106258630752563,-0.904304027557373,-3.73826265335083
120067367317.5673,d4:ca:6e:f1:72:6c,-25.024402618408203,-35.14193344116211,-40.4683837890625,-0.9239688515663147,-0.09292025864124298,-3.3943538665771484
120067383987.90071,d4:ca:6e:f1:72:6c,-22.717618942260742,-33.81204605102539,-41.6977424621582,-0.38974541425704956,0.6194978952407837,-2.634676933288574
120067400658.23412,d4:ca:6e:f1:72:6c,-20.48192024230957,-32.403114318847656,-43.02592849731445,1.2284913063049316,1.2949285507202148,-1.2706060409545898
120067417328.56752,d4:ca:6e:f1:72:6c,-18.328474044799805,-31.073225021362305,-44.17780685424805,1.357802391052246,1.4654698371887207,0.4851036071777344
120067433729.4,d4:ca:6e:f1:72:6c,-15.979405403137207,-29.864299774169922,-45.343570709228516,0.20227006077766418,1.6576234102249146,0.46640682220458984
120067450399.7334,d4:ca:6e:f1:72:6c,-13.799659729003906,-28.4311466217041,-46.54466247558594,-1.1506844758987427,1.4622523784637451,1.3942031860351562
120067467070.0668,d4:ca:6e:f1:72:6c,-11.476232528686523,-27.154541015625,-47.64119338989258,-1.8306066989898682,1.3104321956634521,2.6990013122558594
120067483740.4002,d4:ca:6e:f1:72:6c,-8.790984153747559,-25.66362762451172,-49.212345123291016,-0.2523271143436432,1.033873200416565,2.8387832641601562
120067500410.73361,d4:ca:6e:f1:72:6c,-6.249722480773926,-24.09717559814453,-50.31825637817383,0.3506607711315155,1.2601335048675537,4.542387962341309
120067517081.06702,d4:ca:6e:f1:72:6c,-4.096739768981934,-22.54810333251953,-50.92906188964844,-0.45188039541244507,0.6977161169052124,4.496760368347168
120067533751.40042,d4:ca:6e:f1:72:6c,-2.3981103897094727,-21.015050888061523,-51.606971740722656,-1.091741681098938,0.49703386425971985,3.497844696044922
120067550421.73383,d4:ca:6e:f1:72:6c,-1.6083253622055054,-19.568185806274414,-52.315765380859375,-1.1962395906448364,0.5568317174911499,3.3063125610351562
120067567092.06723,d4:ca:6e:f1:72:6c,-1.6238536834716797,-18.253002166748047,-52.606021881103516,-0.805939793586731,0.5169376730918884,4.122554779052734
120067583723.299,d4:ca:6e:f1:72:6c,-1.3991544246673584,-17.146482467651367,-53.01824951171875,-0.6622209548950195,-0.03736298531293869,4.806375503540039
120067600393.6324,d4:ca:6e:f1:72:6c,-0.9430647492408752,-16.262996673583984,-53.35081100463867,-0.21094314754009247,-0.24763044714927673,4.646916389465332
120067617063.9658,d4:ca:6e:f1:72:6c,-0.41475895047187805,-15.423150062561035,-53.79716873168945,-0.5680668950080872,-0.26397082209587097,3.997072219848633
120067633734.29921,d4:ca:6e:f1:72:6c,-0.4796203672885895,-14.651585578918457,-54.21333312988281,0.0075132763013243675,-0.17283093929290771,3.236599922180176
120067650404.63261,d4:ca:6e:f1:72:6c,-0.5911095142364502,-13.89609146118164,-54.54018783569336,0.5747727155685425,-0.5594502091407776,3.501336097717285
120067667074.96602,d4:ca:6e:f1:72:6c,-0.30410391092300415,-13.224381446838379,-54.820804595947266,1.5722376108169556,-0.6380018591880798,3.8232927322387695
120067683745.29942,d4:ca:6e:f1:72:6c,0.5099441409111023,-12.660356521606445,-55.183353424072266,0.9874835014343262,-0.8647068738937378,3.663013458251953
120067700415.63283,d4:ca:6e:f1:72:6c,1.822952151298523,-11.79447078704834,-55.61975860595703,-1.281355619430542,-1.3942095041275024,3.00997257232666
120067717085.96623,d4:ca:6e:f1:72:6c,2.816838502883911,-10.814516067504883,-55.93351364135742,-2.546182632446289,-2.0394599437713623,3.2175941467285156
120067733569.6,d4:ca:6e:f1:72:6c,3.1617822647094727,-9.701258659362793,-55.86949157714844,-1.7904211282730103,-2.106168508529663,3.1853904724121094
120067750239.93341,d4:ca:6e:f1:72:6c,2.9828073978424072,-9.136126518249512,-55.77336883544922,-0.7062756419181824,-1.4067834615707397,2.660135269165039
120067766910.26682,d4:ca:6e:f1:72:6c,2.9859347343444824,-8.711363792419434,-55.93865203857422,0.49579158425331116,-1.093015432357788,2.2971458435058594
120067783580.60022,d4:ca:6e:f1:72:6c,3.6001534461975098,-8.297637939453125,-56.37089920043945,-0.6298317909240723,-1.5013294219970703,3.285515785217285
120067800250.93362,d4:ca:6e:f1:72:6c,4.6355977058410645,-8.080971717834473,-57.040218353271484,-3.1330654621124268,-2.3457226753234863,3.862947463989258
120067816921.26703,d4:ca:6e:f1:72:6c,5.292177677154541,-7.646022796630859,-57.8015022277832,-4.58098840713501,-2.236332654953003,3.7142744064331055
120067833591.60043,d4:ca:6e:f1:72:6c,4.632906913757324,-6.513980388641357,-58.32237243652344,-3.0178792476654053,-1.713011622428894,3.9236106872558594
120067850261.93384,d4:ca:6e:f1:72:6c,3.932098150253296,-5.443120956420898,-59.08171081542969,-0.931376039981842,-0.9904853701591492,4.820054054260254
120067866932.26724,d4:ca:6e:f1:72:6c,3.496509313583374,-4.937446594238281,-59.979286193847656,0.3558668792247772,-0.5799648761749268,4.154210090637207
120067883602.60065,d4:ca:6e:f1:72:6c,3.0268478393554688,-4.7012410163879395,-60.72574996948242,0.5080355405807495,-0.7267459034919739,4.013275146484375
120067900272.93405,d4:ca:6e:f1:72:6c,2.8073348999023438,-4.892088890075684,-61.340660095214844,-2.920706272125244,-1.0564020872116089,5.349974632263184
120067916943.26746,d4:ca:6e:f1:72:6c,2.252565860748291,-5.680660247802734,-61.608028411865234,-5.3302001953125,-2.9019229412078857,4.536929130554199
120067933613.60086,d4:ca:6e:f1:72:6c,0.561869740486145,-7.445864200592041,-62.67805862426758,-3.8165950775146484,-2.6834099292755127,1.7715492248535156
120067950283.93427,d4:ca:6e:f1:72:6c,-2.1077561378479004,-8.993022918701172,-64.00563049316406,-1.458127498626709,2.1976864337921143,0.7549810409545898
120067966954.26767,d4:ca:6e:f1:72:6c,-4.232686519622803,-9.6743803024292,-64.06266784667969,1.3643181324005127,2.066448450088501,-0.023601531982421875
120067983624.60107,d4:ca:6e:f1:72:6c,-4.940657138824463,-10.520122528076172,-64.68643951416016,3.197132110595703,-1.7482823133468628,0.22059345245361328
120068000294.93448,d4:ca:6e:f1:72:6c,-4.172769069671631,-12.21556282043457,-66.09768676757812,1.7646379470825195,-0.07492897659540176,-1.1275224685668945
120068016965.26788,d4:ca:6e:f1:72:6c,-3.185637950897217,-13.122552871704102,-66.6337890625,-0.6269603967666626,-0.05055639520287514,-0.49818992614746094
120068033635.60129,d4:ca:6e:f1:72:6c,-3.510023593902588,-13.439544677734375,-66.78628540039062,-0.7688024640083313,-0.8243968486785889,2.502490997314453
120068050305.9347,d4:ca:6e:f1:72:6c,-4.957108497619629,-13.839539527893066,-67.67481231689453,-1.2748949527740479,-0.7485364079475403,4.031750679016113
120068066976.2681,d4:ca:6e:f1:72:6c,-7.634807586669922,-14.676958084106445,-68.2821273803711,0.35318225622177124,0.9850407242774963,3.584299087524414
120068083646.6015,d4:ca:6e:f1:72:6c,-9.791438102722168,-15.540282249450684,-68.25942993164062,1.3371881246566772,1.839717149734497,2.5310754776000977
120068100316.9349,d4:ca:6e:f1:72:6c,-11.122365951538086,-16.136205673217773,-67.92510986328125,3.0170114040374756,1.7384361028671265,0.8124265670776367
120068116987.26831,d4:ca:6e:f1:72:6c,-10.775711059570312,-17.0347957611084,-68.30257415771484,1.7502297163009644,0.9292334318161011,0.6599397659301758
120068133657.60172,d4:ca:6e:f1:72:6c,-9.817736625671387,-17.98468780517578,-68.7981185913086,0.7161920070648193,0.09165964275598526,1.3417320251464844
120068150327.93512,d4:ca:6e:f1:72:6c,-8.912247657775879,-18.873685836791992,-69.4000473022461,0.7351803183555603,0.2807653546333313,1.0755786895751953
120068166998.26852,d4:ca:6e:f1:72:6c,-8.045841217041016,-19.91843605041504,-70.02698516845703,1.6849597692489624,1.1572208404541016,0.3903236389160156
120068183668.60193,d4:ca:6e:f1:72:6c,-6.865693092346191,-21.170818328857422,-70.74498748779297,3.155754327774048,0.4902898073196411,-1.4792184829711914
120068200338.93533,d4:ca:6e:f1:72:6c,-5.289351463317871,-22.31014060974121,-71.67062377929688,3.7701807022094727,1.3495488166809082,-3.468317985534668
120068217009.26874,d4:ca:6e:f1:72:6c,-2.517185688018799,-23.14972686767578,-72.49077606201172,0.3264150321483612,2.0316288471221924,-2.9221224784851074
120068233679.60214,d4:ca:6e:f1:72:6c,1.9021611213684082,-23.56769371032715,-73.0144271850586,0.8945062160491943,1.8752696514129639,-2.684744358062744
120068250349.93555,d4:ca:6e:f1:72:6c,5.149537086486816,-22.57670021057129,-72.74510955810547,0.7596185207366943,0.4775376617908478,-5.10181999206543
120068267020.26895,d4:ca:6e:f1:72:6c,6.053073883056641,-19.1660099029541,-71.78365325927734,1.5478748083114624,0.6634727120399475,-6.089700222015381
120068283690.60236,d4:ca:6e:f1:72:6c,6.42979097366333,-14.792726516723633,-70.0678939819336,3.3778607845306396,-0.01618809998035431,-7.167680740356445
120068300360.93576,d4:ca:6e:f1:72:6c,6.858173370361328,-13.041500091552734,-68.71549987792969,1.2112053632736206,-0.29077833890914917,-7.023508071899414
120068317031.26917,d4:ca:6e:f1:72:6c,8.49851131439209,-12.407354354858398,-68.81259155273438,-2.594151020050049,0.30091702938079834,-4.716914176940918
120068333701.60257,d4:ca:6e:f1:72:6c,9.337202072143555,-11.883867263793945,-69.44415283203125,0.07772260904312134,2.104494571685791,-1.2011089324951172
120068350371.93597,d4:ca:6e:f1:72:6c,12.1900053024292,-10.332859992980957,-68.53939056396484,2.6987173557281494,2.7265512943267822,0.33765316009521484
120068367042.26938,d4:ca:6e:f1:72:6c,17.508085250854492,-6.8013386726379395,-65.54696655273438,4.337882041931152,0.450378954410553,-3.137023448944092
120068383712.60278,d4:ca:6e:f1:72:6c,20.840837478637695,-5.922858715057373,-64.37934112548828,1.7978442907333374,1.045179843902588,-2.747319221496582
120068400382.93619,d4:ca:6e:f1:72:6c,27.22785758972168,-4.974130153656006,-64.47393035888672,1.0330595970153809,0.6197431683540344,-1.6597728729248047
120068417053.26959,d4:ca:6e:f1:72:6c,28.47551918029785,-5.940000534057617,-64.87139892578125,-7.085793972015381,-2.9743340015411377,-3.025014877319336
120068433723.603,d4:ca:6e:f1:72:6c,28.58158302307129,-6.899878978729248,-65.71038818359375,-2.814167022705078,-1.926222562789917,0.638397216796875
120068450393.9364,d4:ca:6e:f1:72:6c,29.20293426513672,-8.879435539245605,-66.8727798461914,-2.8258261680603027,-0.3923244774341583,-0.5262031555175781
120068467064.2698,d4:ca:6e:f1:72:6c,28.527435302734375,-9.3652925491333,-66.5428466796875,-0.2518955171108246,0.031133845448493958,-3.2425222396850586
120068483734.60321,d4:ca:6e:f1:72:6c,26.204917907714844,-8.647622108459473,-64.87311553955078,0.8483758568763733,1.318859338760376,-1.0907678604125977
120068500404.93661,d4:ca:6e:f1:72:6c,22.665987014770508,-6.7331132888793945,-62.612972259521484,1.389503002166748,1.4113954305648804,-0.9732980728149414
120068517075.27002,d4:ca:6e:f1:72:6c,19.027786254882812,-3.7879414558410645,-60.78305435180664,0.7459328174591064,0.5753856301307678,-1.10931396484375
120068533745.60342,d4:ca:6e:f1:72:6c,15.154045104980469,-1.2554264068603516,-60.41816711425781,-0.8179681301116943,0.8809487223625183,-1.033829689025879
120068550415.93683,d4:ca:6e:f1:72:6c,11.810843467712402,0.6619881391525269,-60.94887924194336,-1.0183792114257812,2.2278971672058105,0.811004638671875
120068567086.27023,d4:ca:6e:f1:72:6c,9.843533515930176,1.1548229455947876,-61.67548370361328,0.5938271880149841,1.156198263168335,0.27727222442626953
120068583756.60364,d4:ca:6e:f1:72:6c,8.331637382507324,1.1395772695541382,-62.17708969116211,2.210176944732666,1.0536526441574097,-3.182645320892334
120068600426.93704,d4:ca:6e:f1:72:6c,6.212743759155273,2.6910126209259033,-62.15102005004883,1.0816168785095215,-2.252586603164673,-4.95891809463501
120068617097.27045,d4:ca:6e:f1:72:6c,3.545825958251953,4.2680134773254395,-61.59564971923828,-0.15836194157600403,-2.78802490234375,-0.40662670135498047
120068633767.60385,d4:ca:6e:f1:72:6c,3.9077253341674805,5.140422821044922,-61.11612319946289,-4.405019760131836,-1.7811086177825928,-0.5350971221923828
120068650437.93726,d4:ca:6e:f1:72:6c,4.552787780761719,5.423066139221191,-61.552490234375,0.7274787425994873,-1.2598576545715332,-0.748565673828125
120068667108.27066,d4:ca:6e:f1:72:6c,4.83124303817749,6.095537185668945,-61.80487823486328,1.6075665950775146,0.9673566818237305,0.4664878845214844
120068683778.60406,d4:ca:6e:f1:72:6c,5.092953205108643,6.463388919830322,-60.7119140625,-0.13617472350597382,2.7857673168182373,1.3694591522216797
120068700448.93747,d4:ca:6e:f1:72:6c,4.548314094543457,6.615703105926514,-59.29887771606445,-0.15646730363368988,1.1346333026885986,0.20158672332763672
120068717119.27087,d4:ca:6e:f1:72:6c,3.279564142227173,6.632026672363281,-58.79657745361328,-0.593425452709198,1.0058740377426147,-0.3765707015991211
120068733789.60428,d4:ca:6e:f1:72:6c,1.680005669593811,6.5154500007629395,-59.125144958496094,0.09009480476379395,1.036417841911316,-0.14511966705322266
120068750459.93768,d4:ca:6e:f1:72:6c,0.8990286588668823,6.083133220672607,-58.7208251953125,1.4642720222473145,0.9996582269668579,-0.052097320556640625
120068767130.27109,d4:ca:6e:f1:72:6c,1.2055331468582153,5.280202388763428,-57.34755325317383,0.5639762878417969,0.8197051286697388,0.18923568725585938
120068783800.60449,d4:ca:6e:f1:72:6c,1.9060009717941284,4.34488582611084,-55.49433135986328,-0.8454399704933167,-0.17045827209949493,-0.7972631454467773
120068800470.9379,d4:ca:6e:f1:72:6c,2.8203160762786865,3.579240560531616,-53.528175354003906,-0.788798987865448,-1.2606396675109863,-1.6763124465942383
120068817141.2713,d4:ca:6e:f1:72:6c,3.392195701599121,3.264370918273926,-51.92641830444336,-0.5338979363441467,-1.8379346132278442,-2.27700138092041
120068833811.6047,d4:ca:6e:f1:72:6c,4.10508918762207,3.0315937995910645,-50.41792678833008,0.22427451610565186,-1.4570603370666504,-1.5081768035888672
120068850481.93811,d4:ca:6e:f1:72:6c,4.89180850982666,2.5776424407958984,-48.773536682128906,-0.4199769198894501,-0.4046860337257385,-0.958460807800293
120068867152.27151,d4:ca:6e:f1:72:6c,5.24803352355957,2.2282514572143555,-47.11124038696289,-1.0416555404663086,0.12028249353170395,-0.672337532043457
120068883822.60492,d4:ca:6e:f1:72:6c,5.414251327514648,1.8969937562942505,-45.82561111450195,-0.21232827007770538,0.22696910798549652,0.0031909942626953125
120068900492.93832,d4:ca:6e:f1:72:6c,5.392146110534668,1.6841155290603638,-44.86465072631836,0.3271186351776123,1.0755629539489746,0.5857667922973633
120068917163.27173,d4:ca:6e:f1:72:6c,5.141726970672607,1.6009677648544312,-43.9531364440918,0.14419904351234436,1.3837162256240845,1.3658571243286133
120068933833.60513,d4:ca:6e:f1:72:6c,5.268858909606934,1.2137670516967773,-43.03032302856445,1.0181819200515747,3.69997239112854,1.4945812225341797
120068950503.93854,d4:ca:6e:f1:72:6c,6.99935245513916,-0.8879701495170593,-39.541927337646484,1.2419980764389038,-0.7209303975105286,1.0338048934936523
120068967174.27194,d4:ca:6e:f1:72:6c,8.304655075073242,-2.731081008911133,-36.6262092590332,-0.005993360187858343,-0.11814084649085999,-0.5275115966796875
120068983844.60535,d4:ca:6e:f1:72:6c,9.162312507629395,-3.9115376472473145,-33.814674377441406,0.20416857302188873,0.024211537092924118,-0.4288463592529297
120069000514.93875,d4:ca:6e:f1:72:6c,9.9111328125,-4.756668567657471,-30.93134880065918,0.8308529257774353,0.09981898963451385,0.19134044647216797
120069017185.27216,d4:ca:6e:f1:72:6c,10.779097557067871,-5.53470516204834,-28.89034080505371,0.9506733417510986,-0.9930345416069031,-0.008520126342773438
120069033855.60556,d4:ca:6e:f1:72:6c,11.283123016357422,-5.946113109588623,-28.142860412597656,0.6507547497749329,-0.9678843021392822,-0.27641773223876953
120069050525.93896,d4:ca:6e:f1:72:6c,11.589669227600098,-5.965153694152832,-28.00991439819336,0.23538288474082947,-0.13978935778141022,-0.18932723999023438
120069067196.27237,d4:ca:6e:f1:72:6c,11.720794677734375,-5.666274547576904,-28.141324996948242,0.3445906639099121,-0.14810918271541595,-0.1408548355102539
120069083827.9,d4:ca:6e:f1:72:6c,11.804547309875488,-5.41281270980835,-28.25774574279785,0.7123196721076965,-0.463774174451828,-0.3372774124145508
120069100498.2334,d4:ca:6e:f1:72:6c,11.877598762512207,-5.2588982582092285,-28.314023971557617,0.7204145789146423,-0.7428097724914551,-0.7531137466430664
120069117168.5668,d4:ca:6e:f1:72:6c,12.08753490447998,-5.1400532722473145,-28.49913787841797,0.4070853292942047,-0.07789555191993713,-0.5166778564453125
120069133838.9002,d4:ca:6e:f1:72:6c,11.892155647277832,-4.742730617523193,-28.701250076293945,0.5459069609642029,-0.15334413945674896,-0.6908454895019531
120069150509.23361,d4:ca:6e:f1:72:6c,11.425679206848145,-4.3246355056762695,-28.642887115478516,-0.006307256408035755,0.445402592420578,-0.8939933776855469
120069167179.56702,d4:ca:6e:f1:72:6c,10.930843353271484,-3.8976266384124756,-28.789995193481445,-0.3386554419994354,-0.2741878628730774,0.9661636352539062
120069183849.90042,d4:ca:6e:f1:72:6c,10.624135971069336,-3.877875804901123,-28.814542770385742,0.07254386693239212,0.06771627068519592,-0.5672216415405273
120069200520.23383,d4:ca:6e:f1:72:6c,10.464336395263672,-3.8663382530212402,-28.677488327026367,0.3124229311943054,-0.49169671535491943,0.012261390686035156
120069217190.56723,d4:ca:6e:f1:72:6c,10.658368110656738,-3.836282968521118,-28.633846282958984,0.0600152388215065,0.15104272961616516,-0.36678218841552734
120069233860.90063,d4:ca:6e:f1:72:6c,10.58202075958252,-3.6666693687438965,-28.609657287597656,-0.5577011108398438,0.4321322441101074,0.5995473861694336
120069250531.23404,d4:ca:6e:f1:72:6c,10.613602638244629,-3.6358838081359863,-28.50450325012207,-0.1970505565404892,-0.129447802901268,0.4367990493774414
120069267201.56744,d4:ca:6e:f1:72:6c,10.868536949157715,-3.719841480255127,-28.425369262695312,0.12565188109874725,0.020010948181152344,-0.3098421096801758
120069283871.90085,d4:ca:6e:f1:72:6c,11.093838691711426,-3.777841329574585,-28.318309783935547,-0.055797576904296875,-0.18987765908241272,0.027715682983398438
120069300542.23425,d4:ca:6e:f1:72:6c,11.158041000366211,-3.792524814605713,-28.196861267089844,0.092157743871212,0.053722791373729706,0.05209922790527344
120069317212.56766,d4:ca:6e:f1:72:6c,11.314268112182617,-3.9792912006378174,-28.08538246154785,0.08689066022634506,0.031560979783535004,0.009629249572753906
120069333882.90106,d4:ca:6e:f1:72:6c,11.363719940185547,-4.133098125457764,-28.021995544433594,0.26932215690612793,-0.1340385377407074,-0.3156909942626953
120069350553.23447,d4:ca:6e:f1:72:6c,11.354374885559082,-4.204531192779541,-28.024978637695312,0.09449692070484161,-0.27145493030548096,-0.19078350067138672
120069367223.56787,d4:ca:6e:f1:72:6c,11.128087043762207,-4.098413944244385,-28.106304168701172,0.2216942310333252,-0.1741134077310562,-0.3653116226196289
120069383873.599,d4:ca:6e:f1:72:6c,10.98537826538086,-4.018243312835693,-28.286876678466797,0.14006724953651428,-0.13562269508838654,-0.07056522369384766
120069400543.9324,d4:ca:6e:f1:72:6c,10.799108505249023,-3.9032938480377197,-28.439516067504883,0.03377096354961395,0.09660486876964569,0.1775646209716797
120069417214.26581,d4:ca:6e:f1:72:6c,10.771960258483887,-3.8998806476593018,-28.548606872558594,0.07001817226409912,-0.06546963006258011,-0.013339042663574219
120069433884.59921,d4:ca:6e:f1:72:6c,10.800300598144531,-3.898177146911621,-28.65000343322754,0.0724315494298935,-0.1243210881948471,-0.18839740753173828
120069450554.93262,d4:ca:6e:f1:72:6c,10.626936912536621,-3.725186824798584,-28.708402633666992,-0.15947945415973663,0.13032476603984833,0.07702445983886719
120069467225.26602,d4:ca:6e:f1:72:6c,10.531916618347168,-3.6552510261535645,-28.665016174316406,-0.09151095151901245,0.029706157743930817,0.1287517547607422
120069483895.59943,d4:ca:6e:f1:72:6c,10.706806182861328,-3.771557092666626,-28.61618995666504,-0.02025737054646015,-0.07517070323228836,-0.11086463928222656
120069500565.93283,d4:ca:6e:f1:72:6c,10.641667366027832,-3.8144962787628174,-28.514610290527344,0.022169355303049088,0.09286220371723175,-0.13410663604736328
120069517236.26624,d4:ca:6e:f1:72:6c,10.717009544372559,-3.8392975330352783,-28.458669662475586,0.17730355262756348,-0.1554882973432541,-0.11744213104248047
120069533534.099,d4:ca:6e:f1:72:6c,10.729065895080566,-3.8307089805603027,-28.426021575927734,0.0966263860464096,-0.024813737720251083,-0.07020092010498047
120069550204.4324,d4:ca:6e:f1:72:6c,10.741182327270508,-3.909336566925049,-28.36807632446289,0.028026513755321503,-0.18906854093074799,0.0389556884765625
120069566874.76581,d4:ca:6e:f1:72:6c,10.657341003417969,-3.903205156326294,-28.303205490112305,0.00664867227897048,0.01624816283583641,-0.05980968475341797
120069583545.09921,d4:ca:6e:f1:72:6c,10.5939359664917,-3.940305471420288,-28.224700927734375,0.10543016344308853,-0.06271443516016006,-0.10090255737304688
120069600215.43262,d4:ca:6e:f1:72:6c,10.584521293640137,-3.9131481647491455,-28.15053367614746,-0.07724379003047943,-0.04916569963097572,0.07828617095947266
120069616885.76602,d4:ca:6e:f1:72:6c,10.480883598327637,-3.8111042976379395,-27.99043846130371,0.06451243162155151,0.061375316232442856,-0.12777423858642578
120069633556.09943,d4:ca:6e:f1:72:6c,10.380817413330078,-3.7032461166381836,-27.800642013549805,0.047824956476688385,-0.058108117431402206,-0.015284538269042969
120069650226.43283,d4:ca:6e:f1:72:6c,10.371713638305664,-3.661123275756836,-27.688661575317383,0.051002249121665955,-0.09400122612714767,0.043315887451171875
120069666896.76624,d4:ca:6e:f1:72:6c,10.41380500793457,-3.6869356632232666,-27.607038497924805,0.03715154156088829,-0.07571250200271606,0.05965423583984375
120069683567.09964,d4:ca:6e:f1:72:6c,10.395660400390625,-3.735851526260376,-27.528125762939453,0.1143491193652153,-0.15838731825351715,-0.1497335433959961
120069700237.43304,d4:ca:6e:f1:72:6c,10.317745208740234,-3.722712755203247,-27.476978302001953,0.08444096148014069,-0.09830150008201599,-0.1718463897705078
120069716907.76645,d4:ca:6e:f1:72:6c,10.190014839172363,-3.5883209705352783,-27.455474853515625,0.14163395762443542,-0.12495274096727371,-0.2171945571899414
120069733578.09985,d4:ca:6e:f1:72:6c,10.047891616821289,-3.471740484237671,-27.459264755249023,0.044671133160591125,-0.06543856114149094,0.06713581085205078
120069750248.43326,d4:ca:6e:f1:72:6c,9.918313980102539,-3.411591053009033,-27.486072540283203,0.08755292743444443,-0.09581615030765533,0.017388343811035156
120069766918.76666,d4:ca:6e:f1:72:6c,9.847076416015625,-3.376953601837158,-27.494840621948242,0.032418180257081985,-0.04090750962495804,-0.040378570556640625
120069783589.10007,d4:ca:6e:f1:72:6c,9.812033653259277,-3.342170238494873,-27.4820499420166,-0.02095378004014492,-0.06279831379652023,0.08292484283447266
120069800259.43347,d4:ca:6e:f1:72:6c,9.84437370300293,-3.3579752445220947,-27.442407608032227,-0.006581339053809643,-0.08401399105787277,0.1333780288696289
120069816929.76688,d4:ca:6e:f1:72:6c,9.920921325683594,-3.429460287094116,-27.432153701782227,0.09130532294511795,-0.13358251750469208,0.029455184936523438
120069833600.10028,d4:ca:6e:f1:72:6c,10.04334831237793,-3.528787612915039,-27.486560821533203,0.09007885307073593,-0.13917581737041473,0.04960441589355469
120069850270.43369,d4:ca:6e:f1:72:6c,10.212627410888672,-3.6383676528930664,-27.602922439575195,0.04713653400540352,-0.133071169257164,0.02192211151123047
120069866940.76709,d4:ca:6e:f1:72:6c,10.360135078430176,-3.772498369216919,-27.718358993530273,0.11830373108386993,-0.059721656143665314,-0.0715188980102539
120069883611.1005,d4:ca:6e:f1:72:6c,10.433768272399902,-3.869799852371216,-27.83199119567871,0.0020515695214271545,-0.08849609643220901,-0.0009069442749023438
120069900281.4339,d4:ca:6e:f1:72:6c,10.623031616210938,-4.0002923011779785,-27.94157600402832,0.032954245805740356,0.050323717296123505,-0.15130233764648438
120069916951.7673,d4:ca:6e:f1:72:6c,10.741954803466797,-4.081048488616943,-27.994531631469727,0.03518032282590866,-0.004077882040292025,-0.1434497833251953
120069933622.10071,d4:ca:6e:f1:72:6c,10.849298477172852,-4.186173915863037,-28.018898010253906,0.04772459715604782,-0.012937321327626705,-0.07960033416748047
120069950292.43411,d4:ca:6e:f1:72:6c,10.902995109558105,-4.2948808670043945,-28.027828216552734,0.061171919107437134,0.024597041308879852,-0.18837451934814453
120069966962.76752,d4:ca:6e:f1:72:6c,10.883247375488281,-4.412765026092529,-28.023488998413086,0.04445376619696617,-0.028842894360423088,-0.11771869659423828
120069983633.10092,d4:ca:6e:f1:72:6c,10.825261116027832,-4.521942615509033,-28.011606216430664,0.05259181559085846,-0.08316302299499512,-0.17062854766845703
120070000303.43433,d4:ca:6e:f1:72:6c,10.685592651367188,-4.580291748046875,-28.01993179321289,0.09649065136909485,-0.10355371981859207,-0.15581035614013672
120070016973.76773,d4:ca:6e:f1:72:6c,10.515054702758789,-4.6287078857421875,-28.047039031982422,0.06035319343209267,-0.04459681361913681,-0.07247734069824219
120070033644.10114,d4:ca:6e:f1:72:6c,10.379969596862793,-4.6228413581848145,-28.0585880279541,0.009552440606057644,-0.037077613174915314,-0.061240196228027344
120070050314.43454,d4:ca:6e:f1:72:6c,10.273809432983398,-4.609761714935303,-28.052404403686523,0.020643210038542747,-0.07845941931009293,0.03956031799316406
120070066984.76794,d4:ca:6e:f1:72:6c,10.23008918762207,-4.615358352661133,-28.0492000579834,0.054570186883211136,-0.08296974003314972,0.03946876525878906
120070083655.10135,d4:ca:6e:f1:72:6c,10.195648193359375,-4.613056659698486,-28.07407569885254,0.11224725842475891,-0.11491996794939041,-0.10578441619873047
120070100325.43475,d4:ca:6e:f1:72:6c,10.155092239379883,-4.587530612945557,-28.146718978881836,0.08872536569833755,-0.10601755976676941,-0.05698394775390625
120070116995.76816,d4:ca:6e:f1:72:6c,10.141477584838867,-4.568029880523682,-28.224552154541016,0.01899418607354164,-0.05065334588289261,0.03969860076904297
120070133666.10156,d4:ca:6e:f1:72:6c,10.21303939819336,-4.586026668548584,-28.257278442382812,-0.03407231345772743,-0.031952518969774246,0.06400680541992188
120070150336.43497,d4:ca:6e:f1:72:6c,10.282902717590332,-4.632234573364258,-28.26435661315918,0.02069377899169922,-0.0925740897655487,-0.05124855041503906
120070167006.76837,d4:ca:6e:f1:72:6c,10.347480773925781,-4.656970500946045,-28.30841064453125,0.13331134617328644,-0.12368413805961609,-0.09064292907714844
120070183677.10178,d4:ca:6e:f1:72:6c,10.373642921447754,-4.651285648345947,-28.40723419189453,0.16044554114341736,-0.057791732251644135,-0.2320709228515625
120070200347.43518,d4:ca:6e:f1:72:6c,10.315157890319824,-4.61160945892334,-28.5357666015625,0.06586373597383499,0.03673480078577995,-0.239105224609375
120070217017.76859,d4:ca:6e:f1:72:6c,10.059100151062012,-4.558403015136719,-28.637311935424805,0.12371576577425003,0.06036174297332764,-0.49999237060546875
120070233688.10199,d4:ca:6e:f1:72:6c,9.480595588684082,-4.459927082061768,-28.66690444946289,0.07695785909891129,0.14788980782032013,-0.6817789077758789
120070250358.4354,d4:ca:6e:f1:72:6c,9.068281173706055,-4.651636600494385,-28.574766159057617,0.3022350072860718,-0.2052972912788391,-0.9376945495605469
120070267028.7688,d4:ca:6e:f1:72:6c,8.589035987854004,-4.871537685394287,-28.495574951171875,-0.10425320267677307,0.13128715753555298,-0.9725093841552734
120070283699.1022,d4:ca:6e:f1:72:6c,8.205740928649902,-4.991390228271484,-28.499250411987305,-0.4467470049858093,0.11183839291334152,-1.202291488647461
120070300369.43561,d4:ca:6e:f1:72:6c,7.9665141105651855,-4.631478309631348,-28.601774215698242,0.6313270926475525,1.1803028583526611,-0.6506671905517578
120070317039.76901,d4:ca:6e:f1:72:6c,7.710827827453613,-4.158808708190918,-28.580028533935547,1.5095736980438232,1.4249836206436157,-0.7726707458496094
120070333710.10242,d4:ca:6e:f1:72:6c,7.291909217834473,-3.5967965126037598,-28.441287994384766,2.3770337104797363,1.6906651258468628,-0.8853254318237305
120070350380.43582,d4:ca:6e:f1:72:6c,6.37905216217041,-3.216916084289551,-28.129146575927734,2.9060122966766357,2.2380895614624023,-1.1031122207641602
120070367050.76923,d4:ca:6e:f1:72:6c,4.608328342437744,-3.5433127880096436,-27.733797073364258,1.1420698165893555,0.5594260096549988,-1.4944486618041992
120070383721.10263,d4:ca:6e:f1:72:6c,3.317913770675659,-2.728780508041382,-27.074886322021484,-0.3565709888935089,0.5433136820793152,-1.3298978805541992
120070400391.43604,d4:ca:6e:f1:72:6c,1.9962626695632935,-2.248082399368286,-26.55535888671875,-0.1148824468255043,-0.26711270213127136,-1.4977836608886719
120070417061.76944,d4:ca:6e:f1:72:6c,0.9088565707206726,-1.7451220750808716,-25.993995666503906,0.04928242787718773,-0.603141188621521,-1.604151725769043
120070433732.10284,d4:ca:6e:f1:72:6c,0.05085703358054161,-1.2324650287628174,-25.47763442993164,-0.26794320344924927,-1.1312295198440552,-1.8579411506652832
120070450402.43625,d4:ca:6e:f1:72:6c,-0.4774736762046814,-0.7787378430366516,-25.021154403686523,-0.405860960483551,-1.4068435430526733,-1.6591014862060547
120070467072.76965,d4:ca:6e:f1:72:6c,-0.6711780428886414,-0.3255540728569031,-24.663570404052734,-0.31023287773132324,-1.668079137802124,-1.76605224609375
120070483743.10306,d4:ca:6e:f1:72:6c,-0.5611647963523865,0.11569182574748993,-24.366466522216797,-0.09937942028045654,-1.410012125968933,-1.509648323059082
120070500413.43646,d4:ca:6e:f1:72:6c,-0.27478155493736267,0.48698827624320984,-24.144134521484375,-0.0220430176705122,-0.7245925664901733,-0.937291145324707
120070517083.76987,d4:ca:6e:f1:72:6c,0.08909820765256882,0.6588836312294006,-23.903125762939453,0.1827065795660019,-0.15942366421222687,-0.6442165374755859
120070533754.10327,d4:ca:6e:f1:72:6c,0.43941646814346313,0.6527484059333801,-23.641508102416992,0.2285214066505432,0.03237367793917656,-0.4858417510986328
120070550424.43668,d4:ca:6e:f1:72:6c,0.7020423412322998,0.6378902792930603,-23.423818588256836,0.33994945883750916,-0.2220330685377121,-0.9576816558837891
120070567094.77008,d4:ca:6e:f1:72:6c,0.9460989236831665,0.807166576385498,-23.266569137573242,0.16461746394634247,-0.5395591855049133,-1.3103113174438477
120070583765.10349,d4:ca:6e:f1:72:6c,1.2859199047088623,0.9783390164375305,-23.1879825592041,0.14001786708831787,-0.68571937084198,-1.0050334930419922
120070600435.43689,d4:ca:6e:f1:72:6c,1.6434098482131958,1.256915807723999,-23.26381492614746,-0.4802623391151428,-0.7736002802848816,-0.7115039825439453
120070617105.7703,d4:ca:6e:f1:72:6c,1.8972259759902954,1.6348917484283447,-23.5670108795166,-0.717881441116333,-0.35971012711524963,-0.41338157653808594
120070633776.1037,d4:ca:6e:f1:72:6c,2.142066240310669,2.011152744293213,-23.856525421142578,0.23114874958992004,0.21768373250961304,-0.04489898681640625
120070650446.4371,d4:ca:6e:f1:72:6c,2.560286521911621,2.2774243354797363,-23.865619659423828,0.17711228132247925,0.5743415951728821,0.1561717987060547
120070667116.77051,d4:ca:6e:f1:72:6c,3.1404993534088135,2.302016258239746,-23.735149383544922,-0.352018266916275,0.3389761745929718,0.014543533325195312
120070683787.10391,d4:ca:6e:f1:72:6c,3.812534809112549,2.1085002422332764,-23.68083953857422,-1.704954981803894,-0.00677336473017931,0.2172832489013672
120070700457.43732,d4:ca:6e:f1:72:6c,4.402281761169434,1.663791298866272,-23.950366973876953,-1.9421367645263672,-0.2185739278793335,-0.2942028045654297
120070717127.77072,d4:ca:6e:f1:72:6c,5.037161827087402,1.2596499919891357,-24.171411514282227,0.5964896082878113,0.09677409380674362,-0.8965950012207031
120070733798.10413,d4:ca:6e:f1:72:6c,5.73396635055542,0.9381439089775085,-24.16729164123535,1.579301357269287,0.8111186623573303,-0.5031833648681641
120070750468.43753,d4:ca:6e:f1:72:6c,6.330381870269775,0.6351260542869568,-23.93098258972168,0.8945318460464478,0.5882511138916016,-0.26965904235839844
120070767138.77094,d4:ca:6e:f1:72:6c,6.868953227996826,0.1948046237230301,-23.691055297851562,-0.37305137515068054,-0.18633989989757538,-0.6956501007080078
120070783809.10434,d4:ca:6e:f1:72:6c,7.319713115692139,0.053888604044914246,-23.60485076904297,-0.3021840453147888,-0.9259533882141113,-1.5481643676757812
120070800479.43774,d4:ca:6e:f1:72:6c,8.053550720214844,-0.23826287686824799,-23.603723526000977,0.48168376088142395,-0.906046450138092,-1.911888599395752
120070817149.77115,d4:ca:6e:f1:72:6c,8.671878814697266,-0.12610621750354767,-23.703458786010742,0.07451891154050827,-0.5142495632171631,-1.1945552825927734
120070833820.10455,d4:ca:6e:f1:72:6c,9.201614379882812,0.023587847128510475,-23.891813278198242,-0.07108649611473083,0.24578021466732025,0.007596015930175781
120070850490.43796,d4:ca:6e:f1:72:6c,9.83396053314209,0.052783284336328506,-24.01307487487793,0.1358584314584732,0.3886922597885132,0.036708831787109375
120070867160.77136,d4:ca:6e:f1:72:6c,10.594986915588379,-0.1399310678243637,-23.9169921875,0.10211414098739624,0.01522061787545681,-0.5280990600585938
120070883645.999,d4:ca:6e:f1:72:6c,11.163836479187012,-0.06727161258459091,-23.8148193359375,-0.5007896423339844,-0.19345906376838684,-0.40987110137939453
120070900316.3324,d4:ca:6e:f1:72:6c,11.43370532989502,0.08631227910518646,-24.002119064331055,-0.4147787392139435,-0.04794296994805336,-0.024125099182128906
120070916986.6658,d4:ca:6e:f1:72:6c,11.612143516540527,0.35447758436203003,-24.00348472595215,1.0516948699951172,0.09819337725639343,-0.49402713775634766
120070933656.9992,d4:ca:6e:f1:72:6c,11.71887493133545,0.6570664644241333,-23.94864845275879,0.13763989508152008,0.21734365820884705,0.6112060546875
120070950327.33261,d4:ca:6e:f1:72:6c,11.849377632141113,0.8060747981071472,-23.986064910888672,0.39488378167152405,-0.23903843760490417,0.4979686737060547
120070966997.66602,d4:ca:6e:f1:72:6c,12.11744499206543,0.9295117855072021,-24.0284423828125,0.4702606499195099,-0.7434049844741821,0.07702922821044922
120070983667.99942,d4:ca:6e:f1:72:6c,12.443509101867676,1.1178779602050781,-24.016372680664062,-0.04903687164187431,-0.9878218770027161,0.06265640258789062
120071000338.33282,d4:ca:6e:f1:72:6c,12.715043067932129,1.2969896793365479,-23.783870697021484,-1.3169268369674683,-0.7317777872085571,1.0697221755981445
120071017008.66623,d4:ca:6e:f1:72:6c,12.790262222290039,1.396865963935852,-23.755414962768555,-0.47650569677352905,-0.6678254008293152,1.3699331283569336
120071033678.99963,d4:ca:6e:f1:72:6c,12.921364784240723,1.4478288888931274,-23.759319305419922,-0.20614571869373322,-0.5923619270324707,0.9362573623657227
120071050349.33304,d4:ca:6e:f1:72:6c,13.153109550476074,1.5513591766357422,-23.743284225463867,-0.16770389676094055,-0.5726157426834106,0.5441131591796875
120071067019.66644,d4:ca:6e:f1:72:6c,13.546697616577148,1.7664974927902222,-23.7198543548584,0.13914035260677338,-0.43625515699386597,0.6484546661376953
120071083689.99985,d4:ca:6e:f1:72:6c,14.10910701751709,2.0708770751953125,-23.763376235961914,-0.2330557256937027,-0.5011318922042847,1.020273208618164
120071100360.33325,d4:ca:6e:f1:72:6c,14.627338409423828,2.20481538772583,-23.950517654418945,-2.0018248558044434,-0.21978677809238434,2.1167097091674805
120071117030.66666,d4:ca:6e:f1:72:6c,14.81936264038086,2.3055996894836426,-24.380586624145508,-1.226826548576355,-0.044039539992809296,2.0259151458740234
120071133701.00006,d4:ca:6e:f1:72:6c,14.730334281921387,2.6180419921875,-24.810510635375977,-0.6079210638999939,0.11036164313554764,1.0620803833007812
120071150371.33347,d4:ca:6e:f1:72:6c,14.511822700500488,3.0322177410125732,-25.275075912475586,0.05906663089990616,-0.3472074866294861,0.6823272705078125
120071167041.66687,d4:ca:6e:f1:72:6c,14.68508243560791,3.221583843231201,-25.685815811157227,0.1927551031112671,-0.1225680261850357,0.8442592620849609
120071183674.399,d4:ca:6e:f1:72:6c,15.24680233001709,3.3190252780914307,-25.794530868530273,-0.2085556536912918,-0.049199000000953674,0.7309789657592773
120071200344.7324,d4:ca:6e:f1:72:6c,15.739426612854004,3.4627857208251953,-25.865482330322266,-1.090878963470459,-0.0829353779554367,0.6558246612548828
120071217015.06581,d4:ca:6e:f1:72:6c,15.93093490600586,3.624924421310425,-26.273193359375,-0.4774778187274933,0.4135822355747223,1.3441495895385742
120071233685.39922,d4:ca:6e:f1:72:6c,15.940759658813477,3.682363271713257,-26.737838745117188,0.6977508664131165,0.6220511794090271,1.3859596252441406
120071250355.73262,d4:ca:6e:f1:72:6c,16.14994239807129,3.5071067810058594,-26.8330020904541,1.2761304378509521,0.7701199054718018,1.4262113571166992
120071267026.06602,d4:ca:6e:f1:72:6c,16.499279022216797,3.2722785472869873,-26.867982864379883,0.6952278017997742,0.17108754813671112,0.9348487854003906
120071283696.39943,d4:ca:6e:f1:72:6c,16.707677841186523,3.1948883533477783,-26.909990310668945,-0.18403854966163635,-0.17426466941833496,0.7469491958618164
120071300366.73283,d4:ca:6e:f1:72:6c,16.407392501831055,3.4729955196380615,-27.223825454711914,-0.40087923407554626,-0.002104821614921093,1.2167739868164062
120071317037.06624,d4:ca:6e:f1:72:6c,15.985979080200195,3.7551748752593994,-27.455032348632812,0.4951404333114624,-0.14115603268146515,1.1309633255004883
120071333707.39964,d4:ca:6e:f1:72:6c,15.787854194641113,3.8120369911193848,-27.422077178955078,0.5475711226463318,-0.30352845788002014,0.8261404037475586
120071350377.73305,d4:ca:6e:f1:72:6c,15.707459449768066,3.734816551208496,-27.3371639251709,-0.6956852674484253,-0.5477990508079529,0.591557502746582
120071367048.06645,d4:ca:6e:f1:72:6c,15.3990478515625,3.9043939113616943,-27.80451774597168,-0.9646959900856018,-0.3816997706890106,0.7043848037719727
120071383718.39986,d4:ca:6e:f1:72:6c,14.980396270751953,4.213397979736328,-28.20025062561035,0.05863422900438309,-0.15029123425483704,0.9241037368774414
120071400388.73326,d4:ca:6e:f1:72:6c,14.704408645629883,4.197946071624756,-28.6234188079834,0.1454794704914093,-0.0842936635017395,1.0423126220703125
120071417059.06667,d4:ca:6e:f1:72:6c,14.634963035583496,4.0306267738342285,-28.917055130004883,0.09993279725313187,-0.2656615674495697,0.16347885131835938
120071433729.40007,d4:ca:6e:f1:72:6c,14.627340316772461,3.9785268306732178,-29.20045280456543,-0.3521190285682678,-0.2105136662721634,-0.29273414611816406
120071450399.73347,d4:ca:6e:f1:72:6c,14.480172157287598,4.230294227600098,-29.528987884521484,-0.06336845457553864,-0.27652621269226074,-0.17235183715820312
120071467070.06688,d4:ca:6e:f1:72:6c,14.334250450134277,4.538167953491211,-29.679792404174805,-0.24356357753276825,0.34927231073379517,0.6726112365722656
120071483521.199,d4:ca:6e:f1:72:6c,14.149700164794922,4.684047222137451,-29.811382293701172,0.3249594569206238,0.43671390414237976,0.5926895141601562
120071500191.53241,d4:ca:6e:f1:72:6c,13.89587688446045,4.88330602645874,-29.878267288208008,-0.12332279980182648,0.10431315749883652,-0.17643356323242188
120071516861.86581,d4:ca:6e:f1:72:6c,13.50131893157959,5.186599254608154,-30.143892288208008,-0.013287922367453575,0.023722324520349503,-0.17139816284179688
120071533532.19922,d4:ca:6e:f1:72:6c,13.238082885742188,5.441475868225098,-30.30611228942871,0.8703084588050842,0.43175429105758667,0.2585277557373047
120071550202.53262,d4:ca:6e:f1:72:6c,13.095563888549805,5.464184284210205,-30.32584571838379,0.46250954270362854,0.03830241039395332,0.2692127227783203
120071566872.86603,d4:ca:6e:f1:72:6c,12.8750581741333,5.481927871704102,-30.37430191040039,0.040528807789087296,0.32280290126800537,0.30779457092285156
120071583543.19943,d4:ca:6e:f1:72:6c,12.426164627075195,5.629057884216309,-30.448726654052734,-0.11245384067296982,0.286480575799942,0.8488445281982422
120071600213.53284,d4:ca:6e:f1:72:6c,11.941938400268555,5.50118350982666,-30.625377655029297,-0.07786200940608978,0.29511621594429016,1.0398521423339844
120071616883.86624,d4:ca:6e:f1:72:6c,11.482037544250488,5.162568092346191,-30.823841094970703,-0.06687725335359573,0.15160313248634338,0.10651779174804688
120071633554.19965,d4:ca:6e:f1:72:6c,10.878771781921387,5.074733257293701,-31.06352996826172,-0.12172889709472656,-0.2740936577320099,-1.011159896850586
120071650224.53305,d4:ca:6e:f1:72:6c,10.23051643371582,5.350014686584473,-31.223312377929688,0.21301427483558655,-0.1469091922044754,-0.4675168991088867
120071666894.86646,d4:ca:6e:f1:72:6c,9.75503158569336,5.519684791564941,-31.32240104675293,0.39034348726272583,-0.0969931110739708,0.14733314514160156
120071683565.19986,d4:ca:6e:f1:72:6c,9.441819190979004,5.419004917144775,-31.222734451293945,1.669372320175171,2.9340827465057373,1.2766189575195312
120071700235.53326,d4:ca:6e:f1:72:6c,9.716897964477539,4.74854040145874,-31.037397384643555,0.7805353999137878,-1.614500880241394,2.0207338333129883
120071716905.86667,d4:ca:6e:f1:72:6c,9.974991798400879,4.409849643707275,-30.79781150817871,-0.4137915372848511,0.6568847298622131,-0.888336181640625
120071733576.20007,d4:ca:6e:f1:72:6c,10.099987983703613,4.483597755432129,-30.575096130371094,0.307982474565506,-0.09001593291759491,0.23776626586914062
120071750246.53348,d4:ca:6e:f1:72:6c,10.093245506286621,4.1312994956970215,-30.5330810546875,0.23745077848434448,-0.25129032135009766,0.07018470764160156
120071766916.86688,d4:ca:6e:f1:72:6c,10.091429710388184,3.8636136054992676,-30.620731353759766,-0.10255919396877289,-0.2277074009180069,-0.694849967956543
120071783587.20029,d4:ca:6e:f1:72:6c,9.950129508972168,3.6382505893707275,-30.825891494750977,0.24894733726978302,-0.43117544054985046,-0.03907203674316406
120071800257.53369,d4:ca:6e:f1:72:6c,9.665839195251465,3.4839437007904053,-30.849489212036133,-0.05858509987592697,0.535408079624176,-0.2894926071166992
120071816927.8671,d4:ca:6e:f1:72:6c,9.602352142333984,3.525385618209839,-30.659984588623047,-0.30148857831954956,0.08669938892126083,0.6148996353149414
120071833598.2005,d4:ca:6e:f1:72:6c,9.832701683044434,3.58743953704834,-30.556108474731445,0.07978169620037079,-0.13189488649368286,0.1007242202758789
120071850268.5339,d4:ca:6e:f1:72:6c,10.128883361816406,3.6573925018310547,-30.446245193481445,0.04352854564785957,-0.37002554535865784,-0.018373489379882812
120071866938.86731,d4:ca:6e:f1:72:6c,10.305949211120605,3.8331384658813477,-30.3767032623291,-0.0069583565928041935,-0.09254654496908188,-0.549713134765625
120071883609.20071,d4:ca:6e:f1:72:6c,10.284590721130371,3.954134941101074,-30.433950424194336,0.24245363473892212,-0.18554016947746277,-0.22428607940673828
120071900279.53412,d4:ca:6e:f1:72:6c,10.158844947814941,4.201180458068848,-30.456127166748047,0.06188012659549713,0.13490605354309082,-0.09093952178955078
120071916949.86752,d4:ca:6e:f1:72:6c,10.147351264953613,4.512722015380859,-30.446819305419922,-0.07146208733320236,-0.05049101635813713,0.3425445556640625
120071933497.2,d4:ca:6e:f1:72:6c,10.309364318847656,4.485520839691162,-30.423559188842773,-0.1044706404209137,-0.14281924068927765,0.2126178741455078
120071950167.5334,d4:ca:6e:f1:72:6c,10.188840866088867,4.214702129364014,-30.45140838623047,0.13397090137004852,-0.1772562861442566,0.0071201324462890625
120071966837.8668,d4:ca:6e:f1:72:6c,10.117925643920898,3.9484453201293945,-30.52044105529785,0.054905958473682404,-0.04518929123878479,-0.37404823303222656
120071983508.20021,d4:ca:6e:f1:72:6c,10.004576683044434,3.8241090774536133,-30.567405700683594,-0.008383998647332191,0.08610183000564575,-0.3648252487182617
120072000178.53362,d4:ca:6e:f1:72:6c,9.858016014099121,3.782592535018921,-30.591552734375,0.012943195179104805,0.03198688477277756,-0.013756752014160156
120072016848.86702,d4:ca:6e:f1:72:6c,9.732256889343262,3.7344162464141846,-30.580631256103516,0.0016104667447507381,-0.07730396836996078,-0.06468009948730469
120072033519.20042,d4:ca:6e:f1:72:6c,9.597414016723633,3.7130815982818604,-30.537302017211914,-0.08546453714370728,-0.06872621178627014,-0.12687110900878906
120072050189.53383,d4:ca:6e:f1:72:6c,9.47072982788086,3.7293801307678223,-30.43994140625,0.01742134802043438,-0.11665543168783188,-0.016201019287109375
120072066859.86723,d4:ca:6e:f1:72:6c,9.367692947387695,3.6394667625427246,-30.365232467651367,0.015784716233611107,0.046172134578228,0.059227943420410156
120072083530.20064,d4:ca:6e:f1:72:6c,9.261018753051758,3.567392110824585,-30.316375732421875,0.15875904262065887,-0.16586527228355408,0.012582778930664062
120072100200.53404,d4:ca:6e:f1:72:6c,9.075632095336914,3.5313518047332764,-30.31979751586914,-0.06362850964069366,-0.009002654813230038,-0.3087425231933594
120072116870.86745,d4:ca:6e:f1:72:6c,8.846199989318848,3.557291269302368,-30.314733505249023,0.12262199074029922,-0.3209839463233948,-0.17012977600097656
120072133541.20085,d4:ca:6e:f1:72:6c,8.570728302001953,3.5871593952178955,-30.319171905517578,0.05457938462495804,-0.13998152315616608,-0.04338645935058594
120072150211.53426,d4:ca:6e:f1:72:6c,8.377338409423828,3.5052590370178223,-30.34514045715332,0.029208485037088394,-0.0056226360611617565,0.15969562530517578
120072166881.86766,d4:ca:6e:f1:72:6c,8.25501823425293,3.5194315910339355,-30.287879943847656,0.10193262994289398,-0.09755178540945053,0.06169700622558594
120072183552.20107,d4:ca:6e:f1:72:6c,8.169368743896484,3.4410483837127686,-30.3339900970459,0.02835816517472267,-0.1609296053647995,-0.03475475311279297
120072200222.53447,d4:ca:6e:f1:72:6c,8.13365364074707,3.2859067916870117,-30.429418563842773,0.015091615729033947,-0.2528395354747772,0.09592819213867188
120072216892.86787,d4:ca:6e:f1:72:6c,8.11711597442627,3.1186342239379883,-30.497007369995117,-0.02850678563117981,-0.03739388659596443,-0.14903831481933594
120072233563.20128,d4:ca:6e:f1:72:6c,8.002846717834473,3.133436918258667,-30.463706970214844,-0.17236866056919098,0.38828346133232117,-0.4108419418334961
120072250233.53468,d4:ca:6e:f1:72:6c,7.802443504333496,3.21047043800354,-30.452558517456055,0.40107405185699463,-0.4558151662349701,0.26546573638916016
120072266903.86809,d4:ca:6e:f1:72:6c,7.6254706382751465,3.190680742263794,-30.547365188598633,-0.07047627866268158,-0.08089995384216309,-0.12235069274902344
120072283574.20149,d4:ca:6e:f1:72:6c,7.483547210693359,3.207352876663208,-30.580516815185547,-0.10149440914392471,-0.13924092054367065,-0.02388763427734375
120072300244.5349,d4:ca:6e:f1:72:6c,7.421519756317139,3.212099552154541,-30.57855224609375,0.022057900205254555,-0.07017853856086731,0.0899505615234375
120072316914.8683,d4:ca:6e:f1:72:6c,7.40613317489624,3.202396869659424,-30.57942008972168,0.08492119610309601,-0.049438606947660446,0.07445335388183594
120072333585.2017,d4:ca:6e:f1:72:6c,7.400390625,3.1907896995544434,-30.575748443603516,0.016511963680386543,-0.0440048947930336,-0.08229255676269531
120072350255.53511,d4:ca:6e:f1:72:6c,7.328218460083008,3.1952261924743652,-30.576068878173828,0.0497996024787426,-0.1587851196527481,-0.18801593780517578
120072366925.86852,d4:ca:6e:f1:72:6c,7.2235260009765625,3.217496395111084,-30.576622009277344,0.017991242930293083,-0.136836975812912,-0.02547931671142578
120072383596.20192,d4:ca:6e:f1:72:6c,7.180722236633301,3.233511447906494,-30.571773529052734,0.019316932186484337,-0.11429273337125778,0.04192924499511719
120072400266.53532,d4:ca:6e:f1:72:6c,7.147023677825928,3.2409932613372803,-30.574249267578125,0.04095444083213806,-0.05543031916022301,-0.06447410583496094
120072416936.86873,d4:ca:6e:f1:72:6c,7.089620590209961,3.242006301879883,-30.582914352416992,0.04919389635324478,-0.09840783476829529,-0.016310691833496094
120072433607.20213,d4:ca:6e:f1:72:6c,7.06616735458374,3.2288618087768555,-30.600467681884766,0.0342862643301487,-0.11257665604352951,0.02091503143310547
120072450277.53554,d4:ca:6e:f1:72:6c,7.059769153594971,3.202794075012207,-30.622928619384766,0.00190529425162822,-0.11499182879924774,-0.056891441345214844
120072466947.86894,d4:ca:6e:f1:72:6c,7.047813892364502,3.1931283473968506,-30.635236740112305,0.002721689408645034,-0.09948639571666718,-0.08351325988769531
120072483618.20235,d4:ca:6e:f1:72:6c,7.018508434295654,3.1178596019744873,-30.659576416015625,0.06356419622898102,-0.11305039376020432,-0.007152557373046875
120072500288.53575,d4:ca:6e:f1:72:6c,6.9890570640563965,3.105527400970459,-30.664644241333008,0.024273192510008812,-0.06886467337608337,-0.12756729125976562
120072516958.86916,d4:ca:6e:f1:72:6c,6.86511754989624,3.1279356479644775,-30.632503509521484,0.03617260977625847,-0.09108873456716537,-0.17608070373535156
120072533629.20256,d4:ca:6e:f1:72:6c,6.717475891113281,3.150771379470825,-30.620380401611328,-0.011034883558750153,-0.07816477119922638,-0.0902109146118164
120072550299.53596,d4:ca:6e:f1:72:6c,6.557857036590576,3.1511337757110596,-30.607105255126953,0.06334955245256424,-0.13175787031650543,-0.022708892822265625
120072566969.86937,d4:ca:6e:f1:72:6c,6.401442527770996,3.1355080604553223,-30.629716873168945,0.07178615033626556,-0.15312311053276062,0.0010004043579101562
120072583640.20277,d4:ca:6e:f1:72:6c,6.284572601318359,3.1121630668640137,-30.697311401367188,0.07602709531784058,-0.16827911138534546,0.056473731994628906
120072600310.53618,d4:ca:6e:f1:72:6c,6.209346771240234,3.0771305561065674,-30.780818939208984,-0.01114343386143446,-0.09523339569568634,0.015855789184570312
120072616980.86958,d4:ca:6e:f1:72:6c,6.187313556671143,3.0675652027130127,-30.785879135131836,-0.06378825008869171,-0.008444375358521938,-0.0065860748291015625
120072633651.20299,d4:ca:6e:f1:72:6c,6.16105318069458,3.1440367698669434,-30.68403434753418,0.05875764414668083,-0.036174118518829346,-0.01945209503173828
120072650321.53639,d4:ca:6e:f1:72:6c,6.220637321472168,3.112865447998047,-30.7315616607666,0.13138596713542938,-0.29694506525993347,0.13633441925048828
120072666991.8698,d4:ca:6e:f1:72:6c,6.230250835418701,3.0531504154205322,-30.79129981994629,-0.04122886434197426,-0.0718032568693161,-0.26636791229248047
120072683662.2032,d4:ca:6e:f1:72:6c,6.160409450531006,3.051955461502075,-30.814512252807617,0.02993585914373398,-0.034913115203380585,-0.06302928924560547
120072700332.5366,d4:ca:6e:f1:72:6c,6.144557952880859,3.042731285095215,-30.829309463500977,0.05493618920445442,-0.020990045741200447,0.1354236602783203
120072717002.87001,d4:ca:6e:f1:72:6c,6.16093635559082,3.0325300693511963,-30.837772369384766,0.023556897416710854,-0.09077752381563187,-0.0728445053100586
120072733673.20341,d4:ca:6e:f1:72:6c,6.112908363342285,3.0434141159057617,-30.836563110351562,0.016156459227204323,-0.12138064205646515,-0.21245670318603516
120072750343.53682,d4:ca:6e:f1:72:6c,5.991555690765381,3.0732243061065674,-30.822206497192383,-0.00023232075909618288,-0.11001776903867722,-0.0697641372680664
120072767013.87022,d4:ca:6e:f1:72:6c,5.9083027839660645,3.0843939781188965,-30.814611434936523,0.019189970567822456,-0.09649649262428284,0.08810234069824219
120072783684.20363,d4:ca:6e:f1:72:6c,5.92124080657959,3.0710554122924805,-30.803306579589844,0.03359423577785492,-0.10943736135959625,0.16300201416015625
120072800354.53703,d4:ca:6e:f1:72:6c,6.044680118560791,3.03369402885437,-30.780527114868164,0.034030407667160034,-0.06341420114040375,0.12413406372070312
120072817024.87044,d4:ca:6e:f1:72:6c,6.285311222076416,2.9517526626586914,-30.725486755371094,0.030545301735401154,-0.057030558586120605,0.24870014190673828
120072833695.20384,d4:ca:6e:f1:72:6c,6.750726222991943,2.868237018585205,-30.68303680419922,0.1628420054912567,-0.11567007750272751,0.4816465377807617
120072850365.53725,d4:ca:6e:f1:72:6c,7.377926826477051,2.6475296020507812,-30.61078453063965,0.3198111653327942,-0.2871488630771637,0.9791860580444336
120072867035.87065,d4:ca:6e:f1:72:6c,8.134565353393555,2.37664794921875,-30.5105037689209,0.20038151741027832,-0.13555563986301422,2.172408103942871
120072883706.20406,d4:ca:6e:f1:72:6c,8.623982429504395,2.572913408279419,-30.350536346435547,-0.3135809302330017,0.29081839323043823,3.5150976181030273
120072900376.53746,d4:ca:6e:f1:72:6c,8.493374824523926,2.968613862991333,-30.29917335510254,0.06646881252527237,0.2837000787258148,3.924358367919922
120072917046.87086,d4:ca:6e:f1:72:6c,8.270698547363281,3.3575186729431152,-30.25202751159668,1.6315160989761353,0.5490984916687012,4.398934364318848
120072933717.20427,d4:ca:6e:f1:72:6c,8.049869537353516,3.372885227203369,-30.066801071166992,1.0636088848114014,0.5729884505271912,4.310145378112793
120072950387.53767,d4:ca:6e:f1:72:6c,7.732565879821777,3.290255308151245,-29.887609481811523,0.3362751603126526,0.37104490399360657,3.6398067474365234
120072967057.87108,d4:ca:6e:f1:72:6c,7.305200576782227,3.2430996894836426,-29.77069091796875,0.2651002109050751,0.24246853590011597,3.696566581726074
120072983728.20448,d4:ca:6e:f1:72:6c,6.722097396850586,3.222498655319214,-29.711814880371094,0.5548305511474609,0.32309216260910034,3.6952505111694336
120073000398.53789,d4:ca:6e:f1:72:6c,5.894283771514893,3.299866199493408,-29.655319213867188,0.7194636464118958,0.47529593110084534,3.804926872253418
120073017068.87129,d4:ca:6e:f1:72:6c,4.925865173339844,3.4208755493164062,-29.544837951660156,0.4948100745677948,0.4633236825466156,3.6336135864257812
120073033739.2047,d4:ca:6e:f1:72:6c,3.858114719390869,3.512685537338257,-29.424192428588867,-0.0871410220861435,0.27807924151420593,3.5068187713623047
120073050409.5381,d4:ca:6e:f1:72:6c,2.6970977783203125,3.6244022846221924,-29.33031463623047,-0.5891391634941101,0.07306722551584244,3.5848188400268555
120073067079.8715,d4:ca:6e:f1:72:6c,1.5521715879440308,3.6368699073791504,-29.260883331298828,-1.1051656007766724,0.12831157445907593,3.932025909423828
120073083750.20491,d4:ca:6e:f1:72:6c,0.4588031768798828,3.4149420261383057,-29.21930694580078,-1.5339182615280151,0.38445642590522766,4.565105438232422
120073100420.53831,d4:ca:6e:f1:72:6c,-0.6052197217941284,2.9357099533081055,-29.255992889404297,-1.54213547706604,0.6204566359519958,3.9975175857543945
120073117090.87172,d4:ca:6e:f1:72:6c,-1.8437508344650269,2.489380121231079,-29.43824577331543,-1.5742099285125732,0.9743926525115967,3.632833480834961
120073133468.399,d4:ca:6e:f1:72:6c,-3.238168954849243,1.9955531358718872,-29.75678825378418,-1.1376888751983643,1.277642011642456,2.710505485534668
120073150138.7324,d4:ca:6e:f1:72:6c,-4.725382328033447,1.4285811185836792,-30.14626693725586,-0.8263631463050842,1.4733823537826538,1.5357141494750977
120073166809.06581,d4:ca:6e:f1:72:6c,-6.155251502990723,0.7494195699691772,-30.517988204956055,-0.5690988302230835,1.533703088760376,0.028656005859375
120073183479.39922,d4:ca:6e:f1:72:6c,-7.4138264656066895,-0.10246014595031738,-30.819337844848633,-0.37823495268821716,1.399010419845581,-1.4849281311035156
120073200149.73262,d4:ca:6e:f1:72:6c,-8.637731552124023,-0.9209305047988892,-31.188518524169922,0.022694017738103867,0.9014121294021606,-3.2663345336914062
120073216820.06602,d4:ca:6e:f1:72:6c,-9.747681617736816,-1.5918078422546387,-31.57729721069336,0.8910949230194092,0.11126033216714859,-5.174099445343018
120073233490.39943,d4:ca:6e:f1:72:6c,-10.592591285705566,-2.209083080291748,-31.847915649414062,1.3172255754470825,-0.5249036550521851,-6.267299175262451
120073250160.73283,d4:ca:6e:f1:72:6c,-11.161774635314941,-2.7074148654937744,-32.028961181640625,1.0205148458480835,-0.7941089272499084,-7.158456325531006
120073266831.06624,d4:ca:6e:f1:72:6c,-11.468579292297363,-3.1407859325408936,-32.161067962646484,1.168918490409851,-1.1353611946105957,-7.785275936126709
120073283501.39964,d4:ca:6e:f1:72:6c,-11.619339942932129,-3.434553384780884,-32.31980514526367,1.3906413316726685,-1.6474816799163818,-8.456132888793945
120073300171.73305,d4:ca:6e:f1:72:6c,-11.678108215332031,-3.386914014816284,-32.53288650512695,1.8894826173782349,-1.9095802307128906,-8.763535499572754
120073316842.06645,d4:ca:6e:f1:72:6c,-11.606165885925293,-3.122960329055786,-32.66364288330078,1.9259957075119019,-1.6882230043411255,-8.50943374633789
120073333512.39986,d4:ca:6e:f1:72:6c,-11.361748695373535,-2.8293752670288086,-32.57878875732422,1.6518656015396118,-1.1925896406173706,-8.397039413452148
120073350182.73326,d4:ca:6e:f1:72:6c,-10.93011474609375,-2.6640844345092773,-32.169708251953125,1.0671331882476807,-0.7681060433387756,-8.061260223388672
120073366853.06667,d4:ca:6e:f1:72:6c,-10.359807014465332,-2.6441023349761963,-31.495895385742188,0.675937294960022,-0.8057267069816589,-7.798678398132324
120073383523.40007,d4:ca:6e:f1:72:6c,-9.81452465057373,-2.700955629348755,-30.759958267211914,0.020067676901817322,-1.2815433740615845,-7.348919868469238
120073400193.73347,d4:ca:6e:f1:72:6c,-9.487772941589355,-2.4247210025787354,-30.24152946472168,-0.3470952808856964,-1.923042893409729,-7.276825428009033
120073416864.06688,d4:ca:6e:f1:72:6c,-9.199453353881836,-1.8703068494796753,-29.8159236907959,-0.03950103372335434,-2.030418872833252,-6.959865570068359
120073433534.40028,d4:ca:6e:f1:72:6c,-8.71263599395752,-1.2725841999053955,-29.29990005493164,-0.4392523467540741,-1.7463127374649048,-6.263446807861328
120073450204.73369,d4:ca:6e:f1:72:6c,-8.015586853027344,-0.76659095287323,-28.70020866394043,-1.0789915323257446,-1.2453938722610474,-5.1888957023620605
