sep=,
Measurement Mode:,Complete (Euler)
StartTime:,Sat, 12 Mar 2022 16:46:18 GMT
© Xsens Technologies B. V. 2005-2022

Timestamp,Address,Euler_x,Euler_y,Euler_z,FreeAcc_x,FreeAcc_y,FreeAcc_z
119356137448.9,d4:ca:6e:f1:72:6c,-3.785501003265381,-42.80879211425781,115.35179138183594,-0.01109093613922596,-0.029679391533136368,-0.031917572021484375
119356143229.6,d4:ca:6e:f1:72:6c,-3.7588820457458496,-42.77161407470703,115.35453033447266,-0.008347873575985432,-0.009287075139582157,-0.023128509521484375
119356159899.93341,d4:ca:6e:f1:72:6c,-3.735558032989502,-42.75077438354492,115.3492202758789,-0.005369451828300953,-0.007308873813599348,-0.020049095153808594
119356169691.199,d4:ca:6e:f1:72:6c,-3.7211196422576904,-42.734840393066406,115.34161376953125,0.00033739281934686005,0.007760928478091955,-0.012971878051757812
119356186361.53241,d4:ca:6e:f1:72:6c,-3.713576555252075,-42.72660827636719,115.34953308105469,0.004415945615619421,0.019328953698277473,-0.021803855895996094
119356203031.86581,d4:ca:6e:f1:72:6c,-3.7152490615844727,-42.72639846801758,115.35330200195312,0.00042769205174408853,0.025289038196206093,-0.022756576538085938
119356219702.19922,d4:ca:6e:f1:72:6c,-3.7190089225769043,-42.72846984863281,115.35758209228516,0.015998611226677895,-0.007600781507790089,-0.022727012634277344
119356236372.53262,d4:ca:6e:f1:72:6c,-3.723353385925293,-42.72575759887695,115.3712158203125,-0.009667941369116306,-0.002823303919285536,-0.020050048828125
119356253042.86603,d4:ca:6e:f1:72:6c,-3.7261080741882324,-42.7224235534668,115.37348175048828,-0.0014417703496292233,-0.019278662279248238,-0.03938579559326172
119356269713.19943,d4:ca:6e:f1:72:6c,-3.724184989929199,-42.71677017211914,115.37506866455078,0.01327823381870985,0.027401793748140335,-0.006331443786621094
119356286383.53284,d4:ca:6e:f1:72:6c,-3.7260043621063232,-42.71287536621094,115.38331604003906,0.008115755394101143,0.009870890527963638,-0.028575897216796875
119356303053.86624,d4:ca:6e:f1:72:6c,-3.7287368774414062,-42.709083557128906,115.39410400390625,-0.026372963562607765,0.00984384585171938,-0.031040191650390625
119356318905.3,d4:ca:6e:f1:72:6c,-3.728679656982422,-42.70564651489258,115.39705657958984,0.009153749793767929,-0.01579856686294079,-0.04275798797607422
119356335575.6334,d4:ca:6e:f1:72:6c,-3.731149196624756,-42.70131301879883,115.4059066772461,0.015392331406474113,0.027755504474043846,-0.025278091430664062
119356352245.96681,d4:ca:6e:f1:72:6c,-3.7317819595336914,-42.697959899902344,115.40733337402344,0.01097091007977724,0.014414909295737743,-0.02538776397705078
119356368916.30022,d4:ca:6e:f1:72:6c,-3.7333831787109375,-42.694549560546875,115.41313934326172,-0.0007499977364204824,0.008616535924375057,-0.0076580047607421875
119356385586.63362,d4:ca:6e:f1:72:6c,-3.7361762523651123,-42.69033432006836,115.41839599609375,-0.016557840630412102,-0.009223708882927895,-0.022808074951171875
119356402256.96703,d4:ca:6e:f1:72:6c,-3.7383623123168945,-42.68674087524414,115.42649841308594,-0.0080377496778965,-0.002329675480723381,-0.015192985534667969
119356418927.30043,d4:ca:6e:f1:72:6c,-3.7386128902435303,-42.682708740234375,115.43038940429688,-0.006033285055309534,0.009099547751247883,-0.026624679565429688
119356435597.63383,d4:ca:6e:f1:72:6c,-3.7386069297790527,-42.67866134643555,115.43559265136719,-0.002055201679468155,0.0259554423391819,-0.010598182678222656
119356452267.96724,d4:ca:6e:f1:72:6c,-3.738520383834839,-42.6749267578125,115.43598937988281,-0.00027168000815436244,0.01685175858438015,-0.0029125213623046875
119356468448,d4:ca:6e:f1:72:6c,-3.73927640914917,-42.67127227783203,115.44418334960938,-0.00883356761187315,-0.015074160881340504,-0.029755592346191406
119356485118.3334,d4:ca:6e:f1:72:6c,-3.7390782833099365,-42.66737365722656,115.45149230957031,-0.009494047611951828,0.023265017196536064,-0.02394866943359375
119356501788.66681,d4:ca:6e:f1:72:6c,-3.7401766777038574,-42.66415786743164,115.45401000976562,-0.009750082157552242,0.01266100350767374,-0.02567005157470703
119356518459.00021,d4:ca:6e:f1:72:6c,-3.7392404079437256,-42.65970230102539,115.4601821899414,-0.01810074970126152,0.03449765965342522,-0.026811599731445312
119356535129.33362,d4:ca:6e:f1:72:6c,-3.7391397953033447,-42.655799865722656,115.46671295166016,0.0029255610425025225,0.016332315281033516,-0.021183013916015625
119356551799.66702,d4:ca:6e:f1:72:6c,-3.740083932876587,-42.65217208862305,115.4713134765625,-0.006852907128632069,0.02271316386759281,-0.02104663848876953
119356568470.00043,d4:ca:6e:f1:72:6c,-3.740452766418457,-42.64862823486328,115.47765350341797,-0.0286781657487154,0.007845640182495117,-0.031497955322265625
119356585140.33383,d4:ca:6e:f1:72:6c,-3.740623950958252,-42.64366149902344,115.48582458496094,-0.0032970395404845476,0.021219873800873756,-0.018707275390625
119356601810.66724,d4:ca:6e:f1:72:6c,-3.7392992973327637,-42.64033508300781,115.49214935302734,-0.009378603659570217,0.006714552640914917,-0.033203125
119356618481.00064,d4:ca:6e:f1:72:6c,-3.7395615577697754,-42.63752746582031,115.49571228027344,-0.00014304829528555274,-0.0013577294303104281,-0.010809898376464844
119356635151.33405,d4:ca:6e:f1:72:6c,-3.7383670806884766,-42.63383102416992,115.49821472167969,0.009701244533061981,-0.005777809768915176,-0.011542320251464844
119356651821.66745,d4:ca:6e:f1:72:6c,-3.7373194694519043,-42.629478454589844,115.50142669677734,-0.008394811302423477,0.01016637496650219,-0.020076751708984375
119356668492.00085,d4:ca:6e:f1:72:6c,-3.7369420528411865,-42.62559127807617,115.50116729736328,-0.0037159027997404337,0.005561002530157566,-0.02609729766845703
119356685162.33426,d4:ca:6e:f1:72:6c,-3.7381889820098877,-42.62186813354492,115.50416564941406,-0.012190843932330608,0.013893788680434227,-0.018548011779785156
119356701832.66766,d4:ca:6e:f1:72:6c,-3.738571882247925,-42.6182861328125,115.50521850585938,-0.020228145644068718,0.03357443958520889,-0.046387672424316406
119356718503.00107,d4:ca:6e:f1:72:6c,-3.7396366596221924,-42.61404037475586,115.50379943847656,-0.024746349081397057,0.029410170391201973,-0.028104782104492188
119356735173.33447,d4:ca:6e:f1:72:6c,-3.741396188735962,-42.61084747314453,115.50746154785156,-0.01103014126420021,0.04046456143260002,-0.017920494079589844
119356751843.66788,d4:ca:6e:f1:72:6c,-3.739757776260376,-42.605560302734375,115.5113296508789,0.0000781177805038169,0.03198504075407982,-0.01728534698486328
119356768514.00128,d4:ca:6e:f1:72:6c,-3.7384746074676514,-42.602745056152344,115.510986328125,-0.00955596100538969,0.004308882635086775,-0.03508758544921875
119356785184.33469,d4:ca:6e:f1:72:6c,-3.7383882999420166,-42.59968185424805,115.51191711425781,-0.017354551702737808,0.0014859141083434224,-0.018652915954589844
119356801854.66809,d4:ca:6e:f1:72:6c,-3.738801956176758,-42.59618377685547,115.52069854736328,-0.009297133423388004,-0.024717291817069054,-0.02452564239501953
119356818525.0015,d4:ca:6e:f1:72:6c,-3.738909959793091,-42.592132568359375,115.5188980102539,0.014415244571864605,0.021758874878287315,-0.024446487426757812
119356835195.3349,d4:ca:6e:f1:72:6c,-3.739211320877075,-42.587806701660156,115.51986694335938,-0.010007680393755436,0.030367476865649223,-0.01790618896484375
119356851865.6683,d4:ca:6e:f1:72:6c,-3.739966630935669,-42.583282470703125,115.52717590332031,-0.019388630986213684,0.017283475026488304,-0.022927284240722656
119356868536.00171,d4:ca:6e:f1:72:6c,-3.738996744155884,-42.58060836791992,115.52560424804688,-0.008032497018575668,0.017543084919452667,-0.05032062530517578
119356885206.33511,d4:ca:6e:f1:72:6c,-3.738643169403076,-42.576717376708984,115.52745819091797,0.0007621792028658092,0.0422033816576004,-0.019272804260253906
119356901876.66852,d4:ca:6e:f1:72:6c,-3.7388579845428467,-42.572994232177734,115.52963256835938,0.013114399276673794,0.01061328873038292,-0.012555122375488281
119356918547.00192,d4:ca:6e:f1:72:6c,-3.7378945350646973,-42.56824493408203,115.53231048583984,-0.039324868470430374,0.06867066770792007,0.013597488403320312
119356935217.33533,d4:ca:6e:f1:72:6c,-3.7398602962493896,-42.56488037109375,115.53227233886719,-0.005528481211513281,0.003001332050189376,-0.053244590759277344
119356951887.66873,d4:ca:6e:f1:72:6c,-3.7408523559570312,-42.56119155883789,115.53652954101562,-0.01812220737338066,0.029309142380952835,-0.036772727966308594
119356968558.00214,d4:ca:6e:f1:72:6c,-3.7401177883148193,-42.557437896728516,115.539794921875,-0.018384722992777824,0.05621574446558952,-0.024106979370117188
119356985228.33554,d4:ca:6e:f1:72:6c,-3.7390897274017334,-42.553592681884766,115.53971099853516,-0.02781149372458458,0.058981046080589294,-0.006217002868652344
119357001898.66895,d4:ca:6e:f1:72:6c,-3.7404959201812744,-42.55066680908203,115.545166015625,-0.01442899089306593,0.047420620918273926,-0.005448341369628906
119357018569.00235,d4:ca:6e:f1:72:6c,-3.741511583328247,-42.54692077636719,115.54722595214844,-0.00677154865115881,0.003857610048726201,-0.0261077880859375
119357035239.33575,d4:ca:6e:f1:72:6c,-3.7413222789764404,-42.543426513671875,115.54911041259766,-0.017685014754533768,0.0041703046299517155,-0.04266548156738281
119357051909.66916,d4:ca:6e:f1:72:6c,-3.7404136657714844,-42.54052734375,115.55038452148438,-0.014612830244004726,0.020767705515027046,-0.025290489196777344
119357068580.00256,d4:ca:6e:f1:72:6c,-3.741511106491089,-42.53730010986328,115.55207824707031,-0.022448858246207237,0.016398027539253235,-0.018990516662597656
119357085250.33597,d4:ca:6e:f1:72:6c,-3.7403478622436523,-42.53541946411133,115.55189514160156,0.009576189331710339,0.05394094064831734,-0.04355430603027344
119357101920.66937,d4:ca:6e:f1:72:6c,-3.739496946334839,-42.5301628112793,115.55670928955078,-0.02957232855260372,0.05702642351388931,0.011050224304199219
119357118591.00278,d4:ca:6e:f1:72:6c,-3.7394866943359375,-42.52766799926758,115.55674743652344,-0.00807876419275999,0.03942232206463814,-0.0247039794921875
119357135261.33618,d4:ca:6e:f1:72:6c,-3.738196611404419,-42.52391052246094,115.56128692626953,-0.020499490201473236,0.052367184311151505,-0.014140129089355469
119357151931.66959,d4:ca:6e:f1:72:6c,-3.738600254058838,-42.52061080932617,115.5643310546875,-0.015449103899300098,0.03884878754615784,-0.016394615173339844
119357168602.00299,d4:ca:6e:f1:72:6c,-3.7388622760772705,-42.51640701293945,115.57054138183594,-0.03672071918845177,0.01912723295390606,-0.014780044555664062
119357185272.3364,d4:ca:6e:f1:72:6c,-3.7393009662628174,-42.51298522949219,115.57511138916016,-0.017982063814997673,0.029420452192425728,-0.042832374572753906
119357201942.6698,d4:ca:6e:f1:72:6c,-3.7404894828796387,-42.50951385498047,115.57869720458984,-0.02675315923988819,0.004724840167909861,-0.02619171142578125
119357218613.0032,d4:ca:6e:f1:72:6c,-3.7399935722351074,-42.5060920715332,115.57804107666016,-0.027551772072911263,0.03183651342988014,-0.02572154998779297
119357235283.33661,d4:ca:6e:f1:72:6c,-3.7425334453582764,-42.503849029541016,115.58049011230469,-0.014405745081603527,0.049211740493774414,-0.025543212890625
119357251953.67001,d4:ca:6e:f1:72:6c,-3.7418675422668457,-42.500091552734375,115.58543395996094,-0.024622634053230286,0.053780682384967804,-0.02775096893310547
119357268624.00342,d4:ca:6e:f1:72:6c,-3.7436535358428955,-42.4965705871582,115.58617401123047,-0.025267468765378,0.05043189972639084,-0.021796226501464844
119357285294.33682,d4:ca:6e:f1:72:6c,-3.7442636489868164,-42.492496490478516,115.58880615234375,-0.02730490081012249,0.05524323880672455,-0.0214080810546875
119357301964.67023,d4:ca:6e:f1:72:6c,-3.7437257766723633,-42.48881149291992,115.59545135498047,-0.011899382807314396,0.022063635289669037,-0.028911590576171875
119357318635.00363,d4:ca:6e:f1:72:6c,-3.744127035140991,-42.485469818115234,115.59671783447266,0.00042970365029759705,0.021091241389513016,-0.034870147705078125
119357335305.33704,d4:ca:6e:f1:72:6c,-3.742798089981079,-42.48246765136719,115.59700775146484,-0.028010644018650055,0.01737433299422264,-0.032688140869140625
119357351975.67044,d4:ca:6e:f1:72:6c,-3.741076946258545,-42.47926712036133,115.59600830078125,-0.028678277507424355,0.0239076167345047,-0.009550094604492188
119357368604.399,d4:ca:6e:f1:72:6c,-3.7406415939331055,-42.4763069152832,115.5978012084961,-0.027768578380346298,0.05284148082137108,-0.021470069885253906
119357385274.7324,d4:ca:6e:f1:72:6c,-3.739710807800293,-42.472930908203125,115.59683990478516,-0.005971483886241913,0.060384370386600494,-0.0151824951171875
119357401945.06581,d4:ca:6e:f1:72:6c,-3.740283727645874,-42.47026062011719,115.60114288330078,-0.005194664467126131,0.0751841738820076,-0.024979591369628906
119357418615.39922,d4:ca:6e:f1:72:6c,-3.7402236461639404,-42.46678924560547,115.60901641845703,-0.01693032495677471,0.06750348210334778,-0.023545265197753906
119357435285.73262,d4:ca:6e:f1:72:6c,-3.739231824874878,-42.46482467651367,115.6046142578125,-0.029584510251879692,0.0329316183924675,-0.011264801025390625
119357451956.06602,d4:ca:6e:f1:72:6c,-3.7393126487731934,-42.460365295410156,115.60868835449219,-0.04171198606491089,0.034235257655382156,-0.0193634033203125
119357468626.39943,d4:ca:6e:f1:72:6c,-3.7410268783569336,-42.457313537597656,115.61591339111328,-0.007005678489804268,0.002839061664417386,-0.02445697784423828
119357485296.73283,d4:ca:6e:f1:72:6c,-3.7403290271759033,-42.454586029052734,115.61175537109375,-0.016000622883439064,0.01570536196231842,-0.023446083068847656
119357501967.06624,d4:ca:6e:f1:72:6c,-3.7415404319763184,-42.45156478881836,115.61663818359375,-0.024106096476316452,0.04863820597529411,-0.011270523071289062
119357518637.39964,d4:ca:6e:f1:72:6c,-3.7398922443389893,-42.44810485839844,115.61895751953125,-0.0313994362950325,0.0532316230237484,-0.01970958709716797
119357535307.73305,d4:ca:6e:f1:72:6c,-3.740771770477295,-42.446136474609375,115.61992645263672,-0.03890589624643326,0.08863953500986099,-0.019440650939941406
119357551978.06645,d4:ca:6e:f1:72:6c,-3.73775053024292,-42.443050384521484,115.62203216552734,-0.019832750782370567,0.05408622324466705,-0.019296646118164062
119357568648.39986,d4:ca:6e:f1:72:6c,-3.738159656524658,-42.44065856933594,115.62500762939453,-0.0153006911277771,0.056980494409799576,-0.022548675537109375
119357585318.73326,d4:ca:6e:f1:72:6c,-3.7371022701263428,-42.43714141845703,115.62966918945312,-0.02695733867585659,0.01411271933466196,-0.023484230041503906
119357601989.06667,d4:ca:6e:f1:72:6c,-3.7374684810638428,-42.43524932861328,115.62939453125,-0.017293645069003105,0.03619334101676941,-0.024460792541503906
119357618659.40007,d4:ca:6e:f1:72:6c,-3.7361183166503906,-42.432044982910156,115.63245391845703,-0.034562479704618454,0.09350049495697021,-0.018571853637695312
119357635329.73347,d4:ca:6e:f1:72:6c,-3.7350172996520996,-42.43076705932617,115.6337890625,-0.024573015049099922,0.010618317872285843,-0.027268409729003906
119357652000.06688,d4:ca:6e:f1:72:6c,-3.735635757446289,-42.42789077758789,115.63282012939453,-0.009335912764072418,0.05639868974685669,-0.015348434448242188
119357668670.40028,d4:ca:6e:f1:72:6c,-3.736450433731079,-42.426368713378906,115.63390350341797,-0.03833672031760216,0.039854034781455994,-0.032230377197265625
119357685340.73369,d4:ca:6e:f1:72:6c,-3.7369399070739746,-42.42424011230469,115.63357543945312,-0.030346019193530083,0.04656802862882614,-0.03699302673339844
119357702011.0671,d4:ca:6e:f1:72:6c,-3.73797869682312,-42.42180252075195,115.63530731201172,-0.039586715400218964,0.0606815330684185,-0.02740192413330078
119357718681.4005,d4:ca:6e:f1:72:6c,-3.7374167442321777,-42.41974639892578,115.636962890625,-0.022984955459833145,0.054914116859436035,-0.024454116821289062
119357735351.7339,d4:ca:6e:f1:72:6c,-3.7358338832855225,-42.41707229614258,115.63876342773438,-0.017448315396904945,0.044006235897541046,-0.03057098388671875
119357752022.0673,d4:ca:6e:f1:72:6c,-3.734931468963623,-42.41446304321289,115.63992309570312,-0.033945582807064056,0.030106188729405403,-0.028339385986328125
119357768692.40071,d4:ca:6e:f1:72:6c,-3.7334697246551514,-42.41162109375,115.6388168334961,-0.036910705268383026,0.028880108147859573,-0.025801658630371094
119357785362.73412,d4:ca:6e:f1:72:6c,-3.7322864532470703,-42.40959548950195,115.6401596069336,-0.04500835761427879,0.039824310690164566,-0.037029266357421875
119357802033.06752,d4:ca:6e:f1:72:6c,-3.733612060546875,-42.40715789794922,115.64149475097656,-0.020075375214219093,0.048359040170907974,-0.007733345031738281
119357818703.40092,d4:ca:6e:f1:72:6c,-3.7330355644226074,-42.40492248535156,115.64041900634766,-0.027935096994042397,0.062113914638757706,-0.022869110107421875
119357835373.73433,d4:ca:6e:f1:72:6c,-3.7323198318481445,-42.403255462646484,115.6391372680664,-0.024973325431346893,0.07427715510129929,-0.03052520751953125
119357852044.06773,d4:ca:6e:f1:72:6c,-3.7326018810272217,-42.40122604370117,115.6424560546875,-0.014215982519090176,0.049124572426080704,-0.022974014282226562
119357868714.40114,d4:ca:6e:f1:72:6c,-3.7324140071868896,-42.399559020996094,115.64776611328125,-0.0025436892174184322,0.04381781443953514,-0.024771690368652344
119357885384.73454,d4:ca:6e:f1:72:6c,-3.7325634956359863,-42.39731979370117,115.64681243896484,-0.029836073517799377,0.04029648005962372,-0.02060699462890625
119357902055.06795,d4:ca:6e:f1:72:6c,-3.733539342880249,-42.39483642578125,115.65132904052734,-0.04064203053712845,0.023732829838991165,-0.040024757385253906
119357918725.40135,d4:ca:6e:f1:72:6c,-3.7322306632995605,-42.39385223388672,115.6510009765625,-0.013309190981090069,0.049887534230947495,-0.013457298278808594
119357935395.73476,d4:ca:6e:f1:72:6c,-3.7322001457214355,-42.392215728759766,115.6491470336914,-0.014420944266021252,0.0732726901769638,-0.03311920166015625
119357952066.06816,d4:ca:6e:f1:72:6c,-3.731334924697876,-42.390830993652344,115.64895629882812,-0.026369387283921242,0.05551636964082718,-0.018059730529785156
119357968685.599,d4:ca:6e:f1:72:6c,-3.732924222946167,-42.38801193237305,115.6502914428711,-0.03444088622927666,0.07622775435447693,-0.027706146240234375
119357985355.9324,d4:ca:6e:f1:72:6c,-3.735044479370117,-42.38593292236328,115.65544128417969,-0.03378789499402046,0.05019061639904976,-0.012194633483886719
119358002026.26581,d4:ca:6e:f1:72:6c,-3.735243082046509,-42.384056091308594,115.6551742553711,-0.01565898209810257,0.04395337402820587,-0.04039287567138672
119358018696.59921,d4:ca:6e:f1:72:6c,-3.735591411590576,-42.383079528808594,115.66077423095703,-0.0174948051571846,0.06656596064567566,-0.03205585479736328
119358035366.93262,d4:ca:6e:f1:72:6c,-3.7368059158325195,-42.38175964355469,115.66444396972656,-0.046116869896650314,0.06524097174406052,-0.030628204345703125
119358052037.26602,d4:ca:6e:f1:72:6c,-3.736480951309204,-42.379459381103516,115.66665649414062,-0.05563952773809433,0.11511901021003723,-0.025351524353027344
119358068707.59943,d4:ca:6e:f1:72:6c,-3.737666606903076,-42.377601623535156,115.67658996582031,-0.05695981904864311,0.12196431308984756,-0.0006151199340820312
119358085377.93283,d4:ca:6e:f1:72:6c,-3.738758087158203,-42.37556457519531,115.68488311767578,-0.02163940668106079,0.08866546303033829,-0.029951095581054688
119358102048.26624,d4:ca:6e:f1:72:6c,-3.7376909255981445,-42.37382888793945,115.69316101074219,0.0019038834143429995,0.05079365521669388,-0.0073394775390625
119358118217.7,d4:ca:6e:f1:72:6c,-3.736931324005127,-42.37130355834961,115.6991958618164,0.0015280463267117739,-0.0003417513216845691,-0.015551567077636719
119358134888.0334,d4:ca:6e:f1:72:6c,-3.734806776046753,-42.3702507019043,115.70325469970703,-0.025835862383246422,-0.0011858480283990502,-0.018310546875
119358151558.3668,d4:ca:6e:f1:72:6c,-3.735527753829956,-42.36834716796875,115.7044677734375,-0.042908117175102234,-0.010695877484977245,-0.015484809875488281
119358168228.70021,d4:ca:6e:f1:72:6c,-3.733691692352295,-42.36747360229492,115.70406341552734,-0.02470645122230053,0.01135468203574419,-0.022998809814453125
119358184899.03362,d4:ca:6e:f1:72:6c,-3.734062671661377,-42.365413665771484,115.7010269165039,-0.01540440134704113,-0.00823153555393219,-0.04498863220214844
119358201569.36702,d4:ca:6e:f1:72:6c,-3.7362935543060303,-42.36433029174805,115.70354461669922,-0.031036337837576866,0.06397533416748047,-0.009045600891113281
119358218239.70042,d4:ca:6e:f1:72:6c,-3.736257314682007,-42.361270904541016,115.7049789428711,-0.03771311789751053,0.0643107146024704,-0.041253089904785156
119358234910.03383,d4:ca:6e:f1:72:6c,-3.7350194454193115,-42.360450744628906,115.70567321777344,-0.049366746097803116,0.11371590197086334,-0.02113819122314453
119358251580.36723,d4:ca:6e:f1:72:6c,-3.733196496963501,-42.35884475708008,115.70587921142578,-0.0255889929831028,0.10294649004936218,-0.011599540710449219
119358268250.70064,d4:ca:6e:f1:72:6c,-3.733201742172241,-42.35712432861328,115.70930480957031,-0.03804369270801544,0.06877404451370239,-0.028112411499023438
119358284921.03404,d4:ca:6e:f1:72:6c,-3.731123685836792,-42.35526657104492,115.70954132080078,-0.012572603300213814,0.07031069695949554,-0.013657569885253906
119358301591.36745,d4:ca:6e:f1:72:6c,-3.7313451766967773,-42.355220794677734,115.71168518066406,-0.025802111253142357,-0.009719014167785645,-0.05939006805419922
119358318261.70085,d4:ca:6e:f1:72:6c,-3.7283878326416016,-42.352935791015625,115.71208190917969,-0.023857884109020233,0.06725583225488663,0.014611244201660156
119358334932.03426,d4:ca:6e:f1:72:6c,-3.729969024658203,-42.352901458740234,115.71360778808594,-0.04976929351687431,-0.003477973397821188,-0.04061603546142578
119358351602.36766,d4:ca:6e:f1:72:6c,-3.730769395828247,-42.35125732421875,115.71450805664062,-0.00923343189060688,0.11786821484565735,-0.009916305541992188
119358368272.70107,d4:ca:6e:f1:72:6c,-3.72957181930542,-42.35000228881836,115.71490478515625,-0.011014048010110855,-0.011160449124872684,-0.03244781494140625
119358384943.03447,d4:ca:6e:f1:72:6c,-3.728980302810669,-42.34897994995117,115.71951293945312,-0.019324371591210365,0.1420367807149887,0.000621795654296875
119358401613.36787,d4:ca:6e:f1:72:6c,-3.7272937297821045,-42.34820556640625,115.71757507324219,-0.02493700571358204,0.011098423972725868,-0.02813243865966797
119358418283.70128,d4:ca:6e:f1:72:6c,-3.7284672260284424,-42.3487663269043,115.71675109863281,-0.007895148359239101,0.06568542867898941,-0.017900466918945312
119358434954.03468,d4:ca:6e:f1:72:6c,-3.7272214889526367,-42.34634780883789,115.71737670898438,-0.030085962265729904,0.013194081373512745,-0.025177955627441406
119358451624.36809,d4:ca:6e:f1:72:6c,-3.726592779159546,-42.347530364990234,115.7159423828125,-0.03439238667488098,0.06847118586301804,-0.03412437438964844
119358468294.70149,d4:ca:6e:f1:72:6c,-3.7259318828582764,-42.345767974853516,115.71360778808594,-0.012053607031702995,0.038897737860679626,0.018962860107421875
119358484965.0349,d4:ca:6e:f1:72:6c,-3.7243831157684326,-42.34617233276367,115.71190643310547,-0.022217076271772385,0.05279085412621498,-0.04107666015625
119358501635.3683,d4:ca:6e:f1:72:6c,-3.7240049839019775,-42.343994140625,115.71139526367188,-0.012658321298658848,0.11684340983629227,0.004115104675292969
119358518305.7017,d4:ca:6e:f1:72:6c,-3.7238216400146484,-42.34471130371094,115.71284484863281,-0.013339253142476082,-0.0016519842902198434,-0.05924034118652344
119358534976.03511,d4:ca:6e:f1:72:6c,-3.721156597137451,-42.343292236328125,115.708251953125,0.0027912298683077097,0.08280529081821442,0.0107269287109375
119358551646.36852,d4:ca:6e:f1:72:6c,-3.7209692001342773,-42.342857360839844,115.70657348632812,-0.04912624880671501,0.004647393245249987,-0.03863048553466797
119358568316.70192,d4:ca:6e:f1:72:6c,-3.7206640243530273,-42.34287643432617,115.70233917236328,-0.020468981936573982,0.1510763168334961,-0.008561134338378906
119358584987.03532,d4:ca:6e:f1:72:6c,-3.7225093841552734,-42.341678619384766,115.702392578125,-0.04483267664909363,0.03230723366141319,-0.04807090759277344
119358601657.36873,d4:ca:6e:f1:72:6c,-3.7245585918426514,-42.34130096435547,115.70674896240234,0.0009314902708865702,0.16447189450263977,-0.00263214111328125
119358618327.70213,d4:ca:6e:f1:72:6c,-3.7240517139434814,-42.341285705566406,115.70596313476562,-0.012697547674179077,0.0334138460457325,-0.032573699951171875
119358634998.03554,d4:ca:6e:f1:72:6c,-3.723921298980713,-42.342979431152344,115.7087631225586,-0.0209792610257864,0.08261363208293915,-0.015585899353027344
119358651668.36894,d4:ca:6e:f1:72:6c,-3.7218546867370605,-42.341041564941406,115.71052551269531,-0.030263319611549377,0.025420576333999634,-0.024069786071777344
119358668338.70235,d4:ca:6e:f1:72:6c,-3.7232484817504883,-42.34221649169922,115.71296691894531,-0.03332935646176338,0.08193526417016983,-0.037293434143066406
119358685009.03575,d4:ca:6e:f1:72:6c,-3.7225334644317627,-42.3418083190918,115.7122573852539,-0.015869978815317154,0.03638980910181999,-0.01509857177734375
119358701679.36916,d4:ca:6e:f1:72:6c,-3.7223899364471436,-42.34205627441406,115.71168518066406,-0.030977778136730194,0.04351227357983589,-0.04180908203125
119358718169.599,d4:ca:6e:f1:72:6c,-3.722118377685547,-42.34097671508789,115.71281433105469,-0.042503781616687775,0.08104915171861649,-0.02122974395751953
119358734839.9324,d4:ca:6e:f1:72:6c,-3.722050666809082,-42.341346740722656,115.71504211425781,-0.0007101006340235472,0.08132429420948029,-0.04254627227783203
119358751510.26581,d4:ca:6e:f1:72:6c,-3.7237253189086914,-42.341094970703125,115.71732330322266,-0.010352449491620064,0.0681065246462822,-0.014430046081542969
119358768180.59921,d4:ca:6e:f1:72:6c,-3.7234110832214355,-42.34189224243164,115.71880340576172,-0.03728542476892471,0.054351646453142166,-0.0220947265625
119358784850.93262,d4:ca:6e:f1:72:6c,-3.7243292331695557,-42.34169387817383,115.72015380859375,-0.054476477205753326,0.06590435653924942,-0.033504486083984375
119358801521.26602,d4:ca:6e:f1:72:6c,-3.7235915660858154,-42.341529846191406,115.72065734863281,-0.03645988181233406,0.04562089592218399,-0.021317481994628906
119358818191.59943,d4:ca:6e:f1:72:6c,-3.7253551483154297,-42.34211730957031,115.72200775146484,-0.0033661050256341696,0.08221253752708435,-0.02084827423095703
119358834861.93283,d4:ca:6e:f1:72:6c,-3.723825693130493,-42.34318542480469,115.71993255615234,-0.023415328934788704,0.031056230887770653,-0.03361988067626953
119358851532.26624,d4:ca:6e:f1:72:6c,-3.724726676940918,-42.34453582763672,115.7187728881836,-0.030826572328805923,0.07025615870952606,-0.01384735107421875
119358868202.59964,d4:ca:6e:f1:72:6c,-3.726717710494995,-42.34391403198242,115.72233581542969,-0.03645529970526695,0.05257415771484375,-0.038079261779785156
119358884872.93304,d4:ca:6e:f1:72:6c,-3.726423978805542,-42.344913482666016,115.72421264648438,-0.016759447753429413,0.1283884048461914,-0.02662372589111328
119358901543.26645,d4:ca:6e:f1:72:6c,-3.7281012535095215,-42.34471130371094,115.72452545166016,-0.018397687003016472,0.04043785110116005,-0.023133277893066406
119358918213.59985,d4:ca:6e:f1:72:6c,-3.730490207672119,-42.34490203857422,115.72718811035156,-0.007745059207081795,0.05713002383708954,-0.030805587768554688
119358934883.93326,d4:ca:6e:f1:72:6c,-3.7298169136047363,-42.34351348876953,115.7259750366211,-0.03298671171069145,0.028996558859944344,-0.039554595947265625
119358951554.26666,d4:ca:6e:f1:72:6c,-3.7291159629821777,-42.34416961669922,115.72515106201172,-0.05175274983048439,0.060126662254333496,-0.03371906280517578
119358968224.60007,d4:ca:6e:f1:72:6c,-3.7295053005218506,-42.34309005737305,115.72709655761719,-0.03295743092894554,0.05133466795086861,-0.007988929748535156
119358984894.93347,d4:ca:6e:f1:72:6c,-3.7292935848236084,-42.34359359741211,115.72504425048828,-0.023979252204298973,0.06649521738290787,-0.02989482879638672
119359001565.26688,d4:ca:6e:f1:72:6c,-3.73012375831604,-42.34233474731445,115.72559356689453,-0.0116713996976614,0.0906732827425003,-0.006946563720703125
119359018235.60028,d4:ca:6e:f1:72:6c,-3.7281107902526855,-42.34327697753906,115.72468566894531,-0.018670931458473206,0.04754723981022835,-0.05144214630126953
119359034905.93369,d4:ca:6e:f1:72:6c,-3.729238510131836,-42.341407775878906,115.72433471679688,-0.011876360513269901,0.10042034834623337,0.004009246826171875
119359051576.26709,d4:ca:6e:f1:72:6c,-3.7294955253601074,-42.342899322509766,115.72407531738281,-0.0364508293569088,0.031397201120853424,-0.04150199890136719
119359068246.6005,d4:ca:6e:f1:72:6c,-3.727886199951172,-42.341697692871094,115.7228012084961,-0.01839791052043438,0.0918358862400055,0.009006500244140625
119359084916.9339,d4:ca:6e:f1:72:6c,-3.7277841567993164,-42.3431282043457,115.72269439697266,-0.024570556357502937,-0.02122400887310505,-0.044605255126953125
119359101587.2673,d4:ca:6e:f1:72:6c,-3.728523015975952,-42.343196868896484,115.72264099121094,-0.0175701305270195,0.11578060686588287,-0.00724029541015625
119359118257.60071,d4:ca:6e:f1:72:6c,-3.7305333614349365,-42.34404754638672,115.72350311279297,-0.03167245537042618,0.014161445200443268,-0.0341033935546875
119359134927.93411,d4:ca:6e:f1:72:6c,-3.7313435077667236,-42.344696044921875,115.72116088867188,0.010561546310782433,0.116407111287117,0.014214515686035156
119359151598.26752,d4:ca:6e:f1:72:6c,-3.7306673526763916,-42.34528732299805,115.72228240966797,-0.036437418311834335,0.009087142534554005,-0.034923553466796875
119359168268.60092,d4:ca:6e:f1:72:6c,-3.730451822280884,-42.346031188964844,115.72331237792969,-0.033904120326042175,0.11452189087867737,-0.021292686462402344
119359184938.93433,d4:ca:6e:f1:72:6c,-3.731186866760254,-42.34747314453125,115.72200775146484,-0.03157511726021767,0.018219323828816414,-0.022454261779785156
119359201609.26773,d4:ca:6e:f1:72:6c,-3.733083486557007,-42.348026275634766,115.72195434570312,-0.02556328848004341,0.09648226946592331,-0.01705169677734375
119359218279.60114,d4:ca:6e:f1:72:6c,-3.73429274559021,-42.34783172607422,115.72445678710938,-0.017571918666362762,0.04190431907773018,-0.018685340881347656
119359234949.93454,d4:ca:6e:f1:72:6c,-3.7327075004577637,-42.34933090209961,115.72315979003906,-0.013700561597943306,0.06487161666154861,-0.04047870635986328
119359251620.26794,d4:ca:6e:f1:72:6c,-3.73331618309021,-42.35104751586914,115.72441864013672,-0.022212494164705276,0.0319974459707737,-0.02892589569091797
119359268290.60135,d4:ca:6e:f1:72:6c,-3.7312610149383545,-42.35285949707031,115.72411346435547,-0.0015626908279955387,0.07133583724498749,-0.01914691925048828
119359284960.93475,d4:ca:6e:f1:72:6c,-3.7333858013153076,-42.353126525878906,115.72651672363281,-0.06048864126205444,0.061581842601299286,-0.020750999450683594
119359301631.26816,d4:ca:6e:f1:72:6c,-3.7336349487304688,-42.354637145996094,115.72518157958984,-0.008251315914094448,0.0817721039056778,-0.008373260498046875
119359318301.60156,d4:ca:6e:f1:72:6c,-3.7346129417419434,-42.35499954223633,115.72564697265625,-0.018216194584965706,0.08580997586250305,-0.020723342895507812
119359334971.93497,d4:ca:6e:f1:72:6c,-3.734949827194214,-42.3560905456543,115.72321319580078,-0.017659200355410576,0.04661675542593002,-0.030920028686523438
119359351642.26837,d4:ca:6e:f1:72:6c,-3.735971450805664,-42.356040954589844,115.72430419921875,-0.043380290269851685,0.038155004382133484,-0.04184532165527344
119359368312.60178,d4:ca:6e:f1:72:6c,-3.736605644226074,-42.35685729980469,115.72442626953125,-0.04914882406592369,0.038421764969825745,-0.03331756591796875
119359384982.93518,d4:ca:6e:f1:72:6c,-3.735665798187256,-42.3577880859375,115.7237319946289,-0.02689710259437561,0.05744227021932602,-0.015605926513671875
119359401653.26859,d4:ca:6e:f1:72:6c,-3.7353498935699463,-42.35769271850586,115.72171020507812,-0.02716475911438465,0.07315187901258469,0.008417129516601562
119359418323.60199,d4:ca:6e:f1:72:6c,-3.7358322143554688,-42.357093811035156,115.72188568115234,-0.02484234794974327,0.08716893196105957,-0.02521228790283203
119359434993.9354,d4:ca:6e:f1:72:6c,-3.736292839050293,-42.35614013671875,115.72396850585938,-0.019149137660861015,0.05065261945128441,-0.020650863647460938
119359451664.2688,d4:ca:6e:f1:72:6c,-3.7375504970550537,-42.35777282714844,115.72345733642578,-0.017426298931241035,0.023410523310303688,-0.04171466827392578
119359468334.6022,d4:ca:6e:f1:72:6c,-3.7381138801574707,-42.35928726196289,115.72162628173828,-0.02865234948694706,0.05642182379961014,-0.0108642578125
119359485004.93561,d4:ca:6e:f1:72:6c,-3.7400379180908203,-42.35929870605469,115.72245025634766,-0.03182768449187279,0.08969910442829132,-0.006451606750488281
119359501675.26901,d4:ca:6e:f1:72:6c,-3.7393667697906494,-42.359214782714844,115.7212905883789,-0.023440474644303322,0.0450085811316967,-0.008627891540527344
119359518345.60242,d4:ca:6e:f1:72:6c,-3.739832878112793,-42.360286712646484,115.719482421875,-0.02622019313275814,0.06748738884925842,-0.021581649780273438
119359535015.93582,d4:ca:6e:f1:72:6c,-3.7399508953094482,-42.360496520996094,115.71952819824219,-0.04029994457960129,0.07831122726202011,-0.03655433654785156
119359551686.26923,d4:ca:6e:f1:72:6c,-3.7423195838928223,-42.361907958984375,115.72312927246094,-0.0327954962849617,0.07438243180513382,-0.023389816284179688
119359568356.60263,d4:ca:6e:f1:72:6c,-3.7428672313690186,-42.36380386352539,115.72257232666016,-0.0012924636248499155,0.0539051778614521,-0.006007194519042969
119359585026.93604,d4:ca:6e:f1:72:6c,-3.7428200244903564,-42.3640022277832,115.72236633300781,-0.04604310914874077,0.07060103863477707,-0.01620006561279297
119359601697.26944,d4:ca:6e:f1:72:6c,-3.7433700561523438,-42.36449432373047,115.72411346435547,-0.0275847390294075,0.029280196875333786,-0.031281471252441406
119359618367.60284,d4:ca:6e:f1:72:6c,-3.7425286769866943,-42.36592483520508,115.72161865234375,-0.02017148584127426,0.014008898288011551,-0.03632640838623047
119359635037.93625,d4:ca:6e:f1:72:6c,-3.744550943374634,-42.366947174072266,115.72174835205078,-0.03834230825304985,0.059494342654943466,-0.022828102111816406
119359651708.26965,d4:ca:6e:f1:72:6c,-3.746110677719116,-42.36744689941406,115.72369384765625,-0.03094637393951416,0.08959203958511353,-0.00537872314453125
119359668378.60306,d4:ca:6e:f1:72:6c,-3.7452971935272217,-42.36845779418945,115.7208251953125,-0.006511267740279436,0.06342604756355286,-0.005096435546875
119359685048.93646,d4:ca:6e:f1:72:6c,-3.744757890701294,-42.369895935058594,115.72026062011719,-0.03179091960191727,0.07091250270605087,-0.027200698852539062
119359701719.26987,d4:ca:6e:f1:72:6c,-3.744753360748291,-42.370628356933594,115.72284698486328,-0.027958787977695465,0.08192677050828934,-0.01974773406982422
119359718389.60327,d4:ca:6e:f1:72:6c,-3.746450901031494,-42.37110137939453,115.72419738769531,-0.031198721379041672,0.07226866483688354,-0.025392532348632812
119359735059.93668,d4:ca:6e:f1:72:6c,-3.7470765113830566,-42.37322998046875,115.72335052490234,-0.0034754029475152493,0.029529303312301636,-0.017894744873046875
119359751730.27008,d4:ca:6e:f1:72:6c,-3.7477316856384277,-42.37373733520508,115.72582244873047,-0.03806302696466446,0.07735615968704224,-0.010099411010742188
119359768400.60349,d4:ca:6e:f1:72:6c,-3.746905565261841,-42.37308120727539,115.7272720336914,-0.01750117540359497,0.032886803150177,-0.0038776397705078125
119359785070.93689,d4:ca:6e:f1:72:6c,-3.7478058338165283,-42.374691009521484,115.7259292602539,-0.022065868601202965,0.022324027493596077,-0.038855552673339844
119359801741.2703,d4:ca:6e:f1:72:6c,-3.746934175491333,-42.37527084350586,115.72728729248047,-0.02331497147679329,0.026170015335083008,-0.030127525329589844
119359818411.6037,d4:ca:6e:f1:72:6c,-3.7485265731811523,-42.37604904174805,115.72760009765625,-0.047859154641628265,0.11020898818969727,0.015816688537597656
119359835081.9371,d4:ca:6e:f1:72:6c,-3.749656915664673,-42.377532958984375,115.72552490234375,-0.009167048148810863,0.033173009753227234,-0.026561737060546875
119359851752.27051,d4:ca:6e:f1:72:6c,-3.7497518062591553,-42.377967834472656,115.72661590576172,-0.03127717226743698,0.07291462272405624,-0.023064613342285156
119359868422.60391,d4:ca:6e:f1:72:6c,-3.7487242221832275,-42.37946319580078,115.724853515625,-0.032293934375047684,0.04264269396662712,-0.0240478515625
119359885092.93732,d4:ca:6e:f1:72:6c,-3.748731851577759,-42.37900161743164,115.72367858886719,-0.030398990958929062,0.054642658680677414,-0.025038719177246094
119359901763.27072,d4:ca:6e:f1:72:6c,-3.748046636581421,-42.38055419921875,115.72359466552734,-0.015403060242533684,0.04446488618850708,-0.02578449249267578
119359917862.299,d4:ca:6e:f1:72:6c,-3.747981309890747,-42.38181686401367,115.72222900390625,-0.039960652589797974,0.08407674729824066,-0.03365612030029297
119359934532.6324,d4:ca:6e:f1:72:6c,-3.7480075359344482,-42.38225173950195,115.72392272949219,-0.019321689382195473,0.05555425584316254,-0.012514114379882812
119359951202.9658,d4:ca:6e:f1:72:6c,-3.748643398284912,-42.382930755615234,115.72296905517578,-0.01158858835697174,0.018222564831376076,-0.023423194885253906
119359967873.29921,d4:ca:6e:f1:72:6c,-3.748281478881836,-42.38356399536133,115.72338104248047,-0.03606973960995674,0.05148889124393463,-0.020056724548339844
119359984543.63261,d4:ca:6e:f1:72:6c,-3.7471554279327393,-42.38369369506836,115.72151947021484,-0.02673896588385105,0.06811065226793289,-0.02389240264892578
119360001213.96602,d4:ca:6e:f1:72:6c,-3.748051881790161,-42.38534927368164,115.71894073486328,-0.026361340656876564,0.029802771285176277,-0.009930610656738281
119360017884.29942,d4:ca:6e:f1:72:6c,-3.7483131885528564,-42.38662338256836,115.71586608886719,-0.050768621265888214,0.06192046403884888,-0.027435302734375
119360034554.63283,d4:ca:6e:f1:72:6c,-3.748859167098999,-42.38822555541992,115.71607208251953,-0.031761638820171356,0.06400260329246521,-0.009893417358398438
119360051224.96623,d4:ca:6e:f1:72:6c,-3.7498679161071777,-42.38902282714844,115.71631622314453,-0.03407309576869011,0.07819298654794693,-0.02972698211669922
119360067895.29964,d4:ca:6e:f1:72:6c,-3.7501614093780518,-42.390655517578125,115.71469116210938,-0.018787717446684837,0.029438108205795288,-0.017698287963867188
119360084565.63304,d4:ca:6e:f1:72:6c,-3.7505850791931152,-42.3912467956543,115.711669921875,-0.03117603436112404,0.053545769304037094,-0.023305892944335938
119360101235.96645,d4:ca:6e:f1:72:6c,-3.749021291732788,-42.39212417602539,115.7123794555664,-0.024547869339585304,0.039845988154411316,-0.017475128173828125
119360117906.29985,d4:ca:6e:f1:72:6c,-3.7504751682281494,-42.39415740966797,115.71158599853516,-0.020661091431975365,0.053710274398326874,-0.013554573059082031
119360134576.63326,d4:ca:6e:f1:72:6c,-3.7479870319366455,-42.39506530761719,115.70897674560547,-0.028681965544819832,0.04806109517812729,-0.01993083953857422
119360151246.96666,d4:ca:6e:f1:72:6c,-3.7477731704711914,-42.395973205566406,115.70941925048828,-0.02552417293190956,0.05709884315729141,-0.008990287780761719
119360167917.30006,d4:ca:6e:f1:72:6c,-3.7470366954803467,-42.39594268798828,115.70831298828125,-0.024476904422044754,0.05284729227423668,-0.022497177124023438
119360184587.63347,d4:ca:6e:f1:72:6c,-3.7462940216064453,-42.396541595458984,115.70458221435547,-0.036275483667850494,0.051415130496025085,-0.021259307861328125
119360201257.96687,d4:ca:6e:f1:72:6c,-3.7463877201080322,-42.39711380004883,115.70442962646484,-0.024180861189961433,0.04366839677095413,-0.0073070526123046875
119360217928.30028,d4:ca:6e:f1:72:6c,-3.745940923690796,-42.398311614990234,115.70549774169922,-0.01912756823003292,0.03587964177131653,-0.021788597106933594
119360234598.63368,d4:ca:6e:f1:72:6c,-3.745486259460449,-42.39918518066406,115.70182037353516,-0.00882630329579115,0.053548675030469894,-0.022439956665039062
119360251268.96709,d4:ca:6e:f1:72:6c,-3.746006727218628,-42.400726318359375,115.70100402832031,-0.03365948796272278,0.06004619598388672,-0.027740478515625
119360267939.30049,d4:ca:6e:f1:72:6c,-3.7456724643707275,-42.40155029296875,115.7006607055664,-0.037119243294000626,0.05998830869793892,-0.02591419219970703
119360284609.6339,d4:ca:6e:f1:72:6c,-3.7454264163970947,-42.40287399291992,115.6998519897461,-0.02783205732703209,0.056450095027685165,-0.021329879760742188
119360301279.9673,d4:ca:6e:f1:72:6c,-3.7450368404388428,-42.40508270263672,115.6996078491211,-0.025574687868356705,0.05502117797732353,-0.017235755920410156
119360317950.3007,d4:ca:6e:f1:72:6c,-3.7462430000305176,-42.40691375732422,115.69876098632812,-0.023484505712985992,0.05812331661581993,-0.02028942108154297
119360334620.63411,d4:ca:6e:f1:72:6c,-3.745490074157715,-42.40754699707031,115.69673919677734,-0.018660761415958405,0.034852150827646255,-0.012881278991699219
119360351290.96751,d4:ca:6e:f1:72:6c,-3.745020866394043,-42.40803527832031,115.69409942626953,-0.02447880432009697,0.10669770836830139,0.026411056518554688
119360367961.30092,d4:ca:6e:f1:72:6c,-3.744945764541626,-42.40937423706055,115.69252014160156,-0.02986133098602295,-0.023067766800522804,-0.05889415740966797
119360384631.63432,d4:ca:6e:f1:72:6c,-3.744605541229248,-42.41020965576172,115.69317626953125,-0.03982554003596306,0.06116476655006409,-0.023047447204589844
119360401301.96773,d4:ca:6e:f1:72:6c,-3.7442376613616943,-42.41127395629883,115.69219207763672,-0.0161739569157362,0.03803464025259018,-0.036919593811035156
119360417972.30113,d4:ca:6e:f1:72:6c,-3.7432925701141357,-42.41258239746094,115.69161987304688,-0.023022057488560677,0.06825660914182663,-0.01666259765625
119360434642.63454,d4:ca:6e:f1:72:6c,-3.7446372509002686,-42.41310119628906,115.69129943847656,-0.025544065982103348,0.060318659991025925,-0.0071010589599609375
119360451312.96794,d4:ca:6e:f1:72:6c,-3.7455687522888184,-42.41440200805664,115.6897964477539,-0.03265423700213432,0.05388718470931053,-0.012088775634765625
119360467983.30135,d4:ca:6e:f1:72:6c,-3.7453038692474365,-42.416751861572266,115.68783569335938,-0.022761888802051544,0.04017690196633339,-0.025852203369140625
119360484653.63475,d4:ca:6e:f1:72:6c,-3.7449684143066406,-42.416900634765625,115.68719482421875,-0.018212171271443367,0.03659924119710922,-0.026723861694335938
119360501323.96815,d4:ca:6e:f1:72:6c,-3.74509596824646,-42.41838073730469,115.68799591064453,-0.026021042838692665,0.06923659890890121,-0.018616676330566406
119360517994.30156,d4:ca:6e:f1:72:6c,-3.7433924674987793,-42.418670654296875,115.68567657470703,-0.019267262890934944,0.07004694640636444,-0.008584022521972656
119360534664.63496,d4:ca:6e:f1:72:6c,-3.7427191734313965,-42.41788864135742,115.6834487915039,-0.03615768998861313,0.05919405445456505,-0.031429290771484375
119360551334.96837,d4:ca:6e:f1:72:6c,-3.739514112472534,-42.4192008972168,115.68146514892578,-0.049988001585006714,0.07985212653875351,-0.05037975311279297
119360568005.30177,d4:ca:6e:f1:72:6c,-3.73978853225708,-42.4213752746582,115.68282318115234,-0.02645968645811081,0.047726161777973175,-0.029387474060058594
119360584675.63518,d4:ca:6e:f1:72:6c,-3.7416749000549316,-42.42207336425781,115.68582153320312,-0.0015404513105750084,0.032175250351428986,-0.0003814697265625
119360601345.96858,d4:ca:6e:f1:72:6c,-3.7409002780914307,-42.4232292175293,115.68490600585938,-0.020599400624632835,0.014877134002745152,-0.025934219360351562
119360618016.30199,d4:ca:6e:f1:72:6c,-3.741307497024536,-42.4249267578125,115.68598937988281,-0.03429728001356125,0.033222854137420654,-0.023477554321289062
119360634686.63539,d4:ca:6e:f1:72:6c,-3.7420029640197754,-42.4259033203125,115.68377685546875,-0.03528554365038872,0.04165566340088844,-0.027063369750976562
119360651356.9688,d4:ca:6e:f1:72:6c,-3.742396354675293,-42.42716979980469,115.68590545654297,-0.033328909426927567,0.0904126688838005,-0.032973289489746094
119360667528.4,d4:ca:6e:f1:72:6c,-3.743474006652832,-42.428680419921875,115.68843078613281,-0.002775695640593767,0.05442439764738083,0.0022840499877929688
119360684198.7334,d4:ca:6e:f1:72:6c,-3.7439963817596436,-42.427398681640625,115.68925476074219,-0.01370939053595066,0.05243625119328499,-0.006832122802734375
119360700869.0668,d4:ca:6e:f1:72:6c,-3.744626522064209,-42.42742156982422,115.68929290771484,-0.04339168593287468,0.02017897367477417,-0.037811279296875
119360717539.4002,d4:ca:6e:f1:72:6c,-3.744255542755127,-42.42942428588867,115.6895980834961,-0.04037124663591385,0.0260842964053154,-0.026073455810546875
119360734209.73361,d4:ca:6e:f1:72:6c,-3.7442009449005127,-42.431541442871094,115.68885803222656,-0.020166456699371338,0.028829483315348625,-0.03593921661376953
119360750880.06702,d4:ca:6e:f1:72:6c,-3.7439768314361572,-42.43319320678711,115.68647766113281,-0.027593456208705902,0.044954489916563034,0.0001983642578125
119360767550.40042,d4:ca:6e:f1:72:6c,-3.7442073822021484,-42.4334602355957,115.68549346923828,-0.03061211109161377,0.0520252101123333,-0.006402015686035156
119360784220.73383,d4:ca:6e:f1:72:6c,-3.743974208831787,-42.434661865234375,115.6864013671875,-0.03390881419181824,0.04316996410489082,-0.03282737731933594
119360800891.06723,d4:ca:6e:f1:72:6c,-3.744710683822632,-42.436561584472656,115.68612670898438,-0.030465373769402504,0.060644540935754776,-0.034529685974121094
119360817561.40063,d4:ca:6e:f1:72:6c,-3.7433996200561523,-42.438289642333984,115.6859359741211,-0.021339787170290947,0.05619730427861214,-0.027413368225097656
119360834231.73404,d4:ca:6e:f1:72:6c,-3.7437851428985596,-42.43934631347656,115.68769836425781,-0.008158558048307896,0.028445040807127953,-0.014353752136230469
119360850902.06744,d4:ca:6e:f1:72:6c,-3.743292808532715,-42.44094467163086,115.68569946289062,-0.01381276547908783,0.02562006004154682,-0.013602256774902344
119360867572.40085,d4:ca:6e:f1:72:6c,-3.742898941040039,-42.44078063964844,115.6837387084961,-0.026255955919623375,0.02313370257616043,-0.027319908142089844
119360884242.73425,d4:ca:6e:f1:72:6c,-3.7431960105895996,-42.4408073425293,115.68402099609375,-0.03391116112470627,0.035715024918317795,-0.04037284851074219
119360900913.06766,d4:ca:6e:f1:72:6c,-3.7423477172851562,-42.44084167480469,115.68272399902344,-0.001185959787108004,0.05199045315384865,-0.012018203735351562
119360917583.40106,d4:ca:6e:f1:72:6c,-3.7414653301239014,-42.44044494628906,115.68291473388672,-0.022945281118154526,0.07590913772583008,0.005734443664550781
119360934253.73447,d4:ca:6e:f1:72:6c,-3.740518093109131,-42.44078063964844,115.682861328125,-0.012851324863731861,0.03951731324195862,-0.03380775451660156
119360950924.06787,d4:ca:6e:f1:72:6c,-3.738506555557251,-42.44210433959961,115.68301391601562,-0.02791609801352024,0.05269496887922287,-0.012859344482421875
119360967594.40128,d4:ca:6e:f1:72:6c,-3.737579107284546,-42.4420051574707,115.68168640136719,-0.04134218394756317,0.008685154840350151,-0.029588699340820312
119360984264.73468,d4:ca:6e:f1:72:6c,-3.735975742340088,-42.44328689575195,115.68000793457031,-0.031717605888843536,-0.01590261235833168,-0.03424835205078125
119361000935.06808,d4:ca:6e:f1:72:6c,-3.734983205795288,-42.44413375854492,115.67735290527344,-0.01978011429309845,0.013021417893469334,-0.024995803833007812
119361017605.40149,d4:ca:6e:f1:72:6c,-3.7344892024993896,-42.44509506225586,115.67418670654297,-0.03200381249189377,0.04577154293656349,-0.03208732604980469
119361034275.7349,d4:ca:6e:f1:72:6c,-3.733909845352173,-42.44586181640625,115.67208099365234,-0.023699413985013962,0.08983153104782104,-0.0301971435546875
119361050946.0683,d4:ca:6e:f1:72:6c,-3.734998941421509,-42.44691848754883,115.67290496826172,-0.024188349023461342,0.09789007157087326,-0.02572154998779297
119361067616.4017,d4:ca:6e:f1:72:6c,-3.734557867050171,-42.44707489013672,115.6726303100586,-0.010605466552078724,0.09388303756713867,-0.018278121948242188
119361084286.7351,d4:ca:6e:f1:72:6c,-3.733524799346924,-42.44845962524414,115.67437744140625,-0.017015371471643448,0.06399332731962204,-0.0109100341796875
119361100957.06851,d4:ca:6e:f1:72:6c,-3.7318711280822754,-42.44984817504883,115.67337036132812,-0.01590462401509285,0.019673721864819527,-0.012264251708984375
119361117627.40192,d4:ca:6e:f1:72:6c,-3.731839895248413,-42.449798583984375,115.67448425292969,-0.04238085076212883,-0.005024683196097612,-0.013016700744628906
119361134297.73532,d4:ca:6e:f1:72:6c,-3.7345242500305176,-42.450103759765625,115.67430877685547,-0.03427984565496445,-0.00030308356508612633,-0.035088539123535156
119361150968.06873,d4:ca:6e:f1:72:6c,-3.73655366897583,-42.451881408691406,115.6742172241211,-0.021050002425909042,0.04136185348033905,-0.009511947631835938
119361167638.40213,d4:ca:6e:f1:72:6c,-3.7368011474609375,-42.45281219482422,115.67247772216797,-0.019646117463707924,0.05867874622344971,-0.03348541259765625
119361184308.73553,d4:ca:6e:f1:72:6c,-3.738933563232422,-42.45427703857422,115.67472076416016,-0.03857319429516792,0.09270535409450531,0.00010013580322265625
119361200979.06894,d4:ca:6e:f1:72:6c,-3.7383692264556885,-42.45539855957031,115.67362976074219,-0.021219315007328987,0.04179021716117859,-0.02055835723876953
119361217649.40234,d4:ca:6e:f1:72:6c,-3.738147735595703,-42.45620346069336,115.67408752441406,-0.021048661321401596,0.04546555131673813,-0.02698230743408203
119361234319.73575,d4:ca:6e:f1:72:6c,-3.7323365211486816,-42.45799255371094,115.66846466064453,0.04782283306121826,0.021940702572464943,-0.07955741882324219
119361250990.06915,d4:ca:6e:f1:72:6c,-3.7155051231384277,-42.455406188964844,115.64802551269531,-0.027264222502708435,0.0062921131029725075,0.028371810913085938
119361267660.40256,d4:ca:6e:f1:72:6c,-3.6724557876586914,-42.44717025756836,115.58853912353516,0.11653652787208557,-0.03314864635467529,0.026732444763183594
119361284330.73596,d4:ca:6e:f1:72:6c,-3.7090749740600586,-42.56891632080078,115.34747314453125,0.901111364364624,-0.6141839027404785,0.24515819549560547
119361301001.06937,d4:ca:6e:f1:72:6c,-3.737905502319336,-42.92361831665039,114.63562774658203,0.9601570963859558,-0.48922404646873474,0.3207530975341797
119361317671.40277,d4:ca:6e:f1:72:6c,-3.7492458820343018,-43.386478424072266,113.87586975097656,-0.5576618313789368,-0.009591611102223396,-0.00006866455078125
119361334341.73618,d4:ca:6e:f1:72:6c,-3.8946921825408936,-44.09975051879883,113.16141510009766,0.809885561466217,-1.2356064319610596,0.7024831771850586
119361351012.06958,d4:ca:6e:f1:72:6c,-4.202894687652588,-45.407257080078125,112.2345199584961,0.5749868750572205,-1.5509004592895508,0.9276704788208008
119361367682.40298,d4:ca:6e:f1:72:6c,-4.572078227996826,-48.32963180541992,111.69154357910156,-0.3131226599216461,-2.948383092880249,3.17012882232666
119361384352.73639,d4:ca:6e:f1:72:6c,-5.368753910064697,-54.03390884399414,111.87525939941406,-0.08318403363227844,-3.6917924880981445,1.3414230346679688
119361401023.0698,d4:ca:6e:f1:72:6c,-7.216071128845215,-60.55168914794922,113.37403869628906,-1.032852292060852,0.4954918920993805,-1.2485408782958984
119361417693.4032,d4:ca:6e:f1:72:6c,-10.931229591369629,-64.3831558227539,117.07209014892578,1.2894586324691772,5.599811553955078,-2.627443313598633
119361434363.7366,d4:ca:6e:f1:72:6c,-14.261787414550781,-64.93144226074219,119.97213745117188,4.0784406661987305,3.907604694366455,2.357865333557129
119361451034.07,d4:ca:6e:f1:72:6c,-17.899295806884766,-66.7666244506836,122.83245849609375,0.3923606872558594,-1.7419459819793701,1.334188461303711
119361467704.40341,d4:ca:6e:f1:72:6c,-23.307819366455078,-68.7053451538086,127.75331115722656,-2.3401331901550293,-0.521676778793335,1.6271486282348633
119361484374.73682,d4:ca:6e:f1:72:6c,-28.94761848449707,-69.241943359375,133.0437469482422,-0.9805386066436768,-1.6821191310882568,1.0016202926635742
119361501045.07022,d4:ca:6e:f1:72:6c,-33.054901123046875,-69.4508285522461,136.9331512451172,2.9017844200134277,-3.7253122329711914,2.3062782287597656
119361517715.40363,d4:ca:6e:f1:72:6c,-35.63241958618164,-70.21292877197266,139.8745880126953,1.2380722761154175,-4.372106552124023,3.3472137451171875
119361534385.73703,d4:ca:6e:f1:72:6c,-36.89095687866211,-71.09683227539062,142.09307861328125,-0.901121973991394,-4.902379035949707,3.767327308654785
119361551056.07043,d4:ca:6e:f1:72:6c,-38.159034729003906,-72.49237060546875,144.66943359375,-1.1124646663665771,-2.8056795597076416,5.97157096862793
119361567726.40384,d4:ca:6e:f1:72:6c,-36.993961334228516,-73.8670654296875,144.38482666015625,0.18468384444713593,2.484570026397705,2.904081344604492
119361584396.73724,d4:ca:6e:f1:72:6c,-35.36445236206055,-75.74267578125,143.9591064453125,0.5238540172576904,-4.768800258636475,1.467543601989746
119361601067.07065,d4:ca:6e:f1:72:6c,-33.65631103515625,-77.45520782470703,143.835693359375,0.9139379858970642,-2.9781768321990967,0.33951473236083984
119361617737.40405,d4:ca:6e:f1:72:6c,-32.14921951293945,-79.20136260986328,143.99490356445312,0.04278496280312538,-1.5921710729599,-0.6741952896118164
119361634407.73746,d4:ca:6e:f1:72:6c,-32.0777587890625,-80.92454528808594,145.5822296142578,-0.2908766269683838,-1.2921788692474365,-1.0264644622802734
119361651078.07086,d4:ca:6e:f1:72:6c,-34.75882339477539,-82.70684814453125,149.93026733398438,-0.4619832932949066,-0.5698415637016296,-1.1950645446777344
119361667748.40427,d4:ca:6e:f1:72:6c,-37.70099639892578,-84.10921478271484,154.53802490234375,-0.5641921758651733,0.5982212424278259,-1.6925134658813477
119361684418.73767,d4:ca:6e:f1:72:6c,-38.48351287841797,-84.88917541503906,156.95361328125,-1.0758488178253174,1.232804298400879,-2.2536416053771973
119361701089.07108,d4:ca:6e:f1:72:6c,-38.860748291015625,-85.30815124511719,158.79840087890625,-0.98858642578125,1.7427690029144287,-2.75057315826416
119361717759.40448,d4:ca:6e:f1:72:6c,-39.13948059082031,-85.4489517211914,160.3341522216797,-1.0079805850982666,2.793999671936035,-3.5468358993530273
119361734429.73788,d4:ca:6e:f1:72:6c,-43.4857063293457,-84.40465545654297,165.77069091796875,0.588025689125061,6.49933385848999,-11.665669441223145
119361751100.07129,d4:ca:6e:f1:72:6c,-53.09382629394531,-83.8134765625,176.1673583984375,3.085399866104126,0.606511116027832,-2.7053890228271484
119361767770.4047,d4:ca:6e:f1:72:6c,-52.52220916748047,-81.89644622802734,176.82101440429688,-5.025651454925537,5.374452114105225,-1.0760841369628906
119361784440.7381,d4:ca:6e:f1:72:6c,-39.011898040771484,-78.05088806152344,163.98887634277344,1.5342928171157837,0.4264460802078247,0.4046478271484375
119361801111.0715,d4:ca:6e:f1:72:6c,-34.480995178222656,-75.75780487060547,160.32814025878906,0.9548742771148682,-0.6441892385482788,0.11923599243164062
119361817781.4049,d4:ca:6e:f1:72:6c,-27.400802612304688,-73.04906463623047,154.1728973388672,-1.3716130256652832,1.597062110900879,1.5395708084106445
119361834451.73831,d4:ca:6e:f1:72:6c,-21.57910919189453,-71.30109405517578,149.1959686279297,-0.7356277108192444,0.534679651260376,0.5975484848022461
119361851122.07172,d4:ca:6e:f1:72:6c,-17.66212272644043,-70.92727661132812,146.00152587890625,-2.432676076889038,0.8641038537025452,-1.0640268325805664
119361867792.40512,d4:ca:6e:f1:72:6c,-15.407764434814453,-71.64569091796875,144.2381134033203,-1.5816760063171387,-0.3391955494880676,-1.2181825637817383
119361884462.73853,d4:ca:6e:f1:72:6c,-13.691218376159668,-72.90200805664062,142.75161743164062,-1.175728440284729,-0.5535354018211365,-0.8495349884033203
119361901133.07193,d4:ca:6e:f1:72:6c,-11.429778099060059,-73.69622802734375,140.69602966308594,-0.9905876517295837,0.23993456363677979,0.7136754989624023
119361917803.40533,d4:ca:6e:f1:72:6c,-9.580034255981445,-73.98807525634766,138.9983367919922,-1.6430872678756714,0.5720812082290649,1.6301383972167969
119361934473.73874,d4:ca:6e:f1:72:6c,-8.937867164611816,-74.14447021484375,138.3606719970703,-1.7546037435531616,1.3209868669509888,1.8412532806396484
119361951144.07214,d4:ca:6e:f1:72:6c,-9.359771728515625,-74.46246337890625,138.539794921875,-1.4865429401397705,0.7228518724441528,1.0928316116333008
119361967814.40555,d4:ca:6e:f1:72:6c,-10.568277359008789,-74.83207702636719,139.38430786132812,1.5424256324768066,2.6192586421966553,-0.12704086303710938
119361984484.73895,d4:ca:6e:f1:72:6c,-11.52354907989502,-75.14735412597656,140.226318359375,3.9330496788024902,6.4232096672058105,-0.461181640625
119362001155.07236,d4:ca:6e:f1:72:6c,-13.061901092529297,-75.92918395996094,141.67355346679688,5.072892189025879,10.06383991241455,0.24741172790527344
119362017825.40576,d4:ca:6e:f1:72:6c,-14.955903053283691,-77.19047546386719,143.5669403076172,5.568935394287109,11.414329528808594,0.9714584350585938
119362034495.73917,d4:ca:6e:f1:72:6c,-16.27789878845215,-78.78431701660156,144.87132263183594,4.757457256317139,7.604821681976318,0.5371036529541016
119362051166.07257,d4:ca:6e:f1:72:6c,-16.646577835083008,-80.28438568115234,144.9401092529297,3.433940887451172,1.8406422138214111,0.043091773986816406
119362067836.40598,d4:ca:6e:f1:72:6c,-13.833861351013184,-79.98936462402344,141.5548858642578,-0.9799275994300842,-0.9356226325035095,-1.0235481262207031
119362084506.73938,d4:ca:6e:f1:72:6c,-9.767224311828613,-79.4419174194336,136.75001525878906,-0.9063624739646912,-6.566396713256836,-0.38048553466796875
119362101177.07278,d4:ca:6e:f1:72:6c,-8.728330612182617,-78.58470153808594,134.90090942382812,-4.372260093688965,-6.432600021362305,-1.8875494003295898
119362117847.40619,d4:ca:6e:f1:72:6c,-9.781643867492676,-78.25119018554688,134.98475646972656,-4.463493347167969,-5.4344258308410645,1.8338632583618164
119362134517.7396,d4:ca:6e:f1:72:6c,-11.459529876708984,-78.37751007080078,135.59239196777344,-4.308802127838135,-4.803636074066162,-0.18390750885009766
119362151188.073,d4:ca:6e:f1:72:6c,-13.523024559020996,-78.4683837890625,136.58212280273438,-2.637730360031128,-3.7047030925750732,-0.056031227111816406
119362167858.4064,d4:ca:6e:f1:72:6c,-15.254857063293457,-78.54656219482422,137.3734130859375,-0.9219771027565002,-1.1113252639770508,0.2874641418457031
119362184528.7398,d4:ca:6e:f1:72:6c,-17.747251510620117,-78.9948959350586,139.19544982910156,1.3016301393508911,-1.5066699981689453,1.090677261352539
119362201199.07321,d4:ca:6e:f1:72:6c,-20.7647762298584,-79.48371124267578,141.9237518310547,1.3046011924743652,0.5890482664108276,1.3088998794555664
119362217869.40662,d4:ca:6e:f1:72:6c,-24.46778106689453,-80.1512680053711,145.51742553710938,1.5252954959869385,1.538521647453308,2.054595947265625
119362234539.74002,d4:ca:6e:f1:72:6c,-27.984413146972656,-80.77156066894531,148.73065185546875,0.6838276386260986,2.8301398754119873,2.3357934951782227
119362251210.07343,d4:ca:6e:f1:72:6c,-30.510833740234375,-81.38924407958984,150.56275939941406,0.9335722327232361,2.825662612915039,2.1391067504882812
119362267880.40683,d4:ca:6e:f1:72:6c,-30.974802017211914,-81.94392395019531,149.9413299560547,0.4897570013999939,3.109402656555176,2.567218780517578
119362284550.74023,d4:ca:6e:f1:72:6c,-27.928178787231445,-82.2646255493164,145.53073120117188,1.5392060279846191,0.05344865471124649,2.4925289154052734
119362301221.07364,d4:ca:6e:f1:72:6c,-24.943025588989258,-82.80636596679688,141.34637451171875,2.0789966583251953,-2.7318952083587646,0.7339162826538086
119362317891.40704,d4:ca:6e:f1:72:6c,-20.46150016784668,-83.08749389648438,135.86795043945312,1.74430251121521,-2.2108325958251953,0.3123302459716797
119362334561.74045,d4:ca:6e:f1:72:6c,-15.416454315185547,-83.34329986572266,130.0862579345703,1.310386300086975,-2.18294095993042,0.12450790405273438
119362351232.07385,d4:ca:6e:f1:72:6c,-10.728832244873047,-83.6786117553711,124.80470275878906,0.43388012051582336,-2.092508554458618,0.1128692626953125
119362367902.40726,d4:ca:6e:f1:72:6c,-5.94402551651001,-84.15192413330078,119.49201965332031,-0.10825090110301971,-2.0559158325195312,0.1963491439819336
119362384572.74066,d4:ca:6e:f1:72:6c,0.32388025522232056,-84.55130004882812,112.78414916992188,-0.08721520006656647,-1.9637202024459839,0.1379995346069336
119362401243.07407,d4:ca:6e:f1:72:6c,8.803079605102539,-84.71154022216797,104.09225463867188,-0.19445469975471497,-2.1331052780151367,-0.20176124572753906
119362417913.40747,d4:ca:6e:f1:72:6c,18.103471755981445,-84.63590240478516,94.87315368652344,-0.7151638865470886,-2.0793631076812744,-0.8784561157226562
119362434583.74088,d4:ca:6e:f1:72:6c,26.70161247253418,-84.42029571533203,86.60530090332031,-1.4063562154769897,-1.2905681133270264,-1.542306900024414
119362451254.07428,d4:ca:6e:f1:72:6c,33.543182373046875,-84.08480834960938,80.2633056640625,-1.7260749340057373,-0.7143839597702026,-2.0864672660827637
119362467924.40768,d4:ca:6e:f1:72:6c,38.95344543457031,-83.78688049316406,75.43678283691406,-1.9894579648971558,-0.22358201444149017,-2.6292295455932617
119362484594.74109,d4:ca:6e:f1:72:6c,42.8295783996582,-83.55685424804688,72.17137145996094,-2.2814998626708984,0.1669335514307022,-3.055901050567627
119362501265.0745,d4:ca:6e:f1:72:6c,44.27349090576172,-83.45983123779297,71.30010986328125,-2.606114149093628,0.281930536031723,-3.0686464309692383
119362517935.4079,d4:ca:6e:f1:72:6c,43.00661849975586,-83.44802856445312,73.10465240478516,-2.4793801307678223,0.5868895649909973,-2.863532543182373
119362534605.7413,d4:ca:6e:f1:72:6c,40.72162628173828,-83.60929107666016,75.92524719238281,-2.1898412704467773,0.6415041089057922,-2.4846577644348145
119362551276.0747,d4:ca:6e:f1:72:6c,37.600181579589844,-83.87938690185547,79.54632568359375,-2.4075872898101807,1.0303869247436523,-2.262070655822754
119362567946.40811,d4:ca:6e:f1:72:6c,33.441349029541016,-84.19612884521484,84.09510040283203,-2.274240016937256,1.1366496086120605,-2.1947522163391113
119362584616.74152,d4:ca:6e:f1:72:6c,28.490583419799805,-84.49468994140625,89.33405303955078,-1.7231614589691162,1.2640613317489624,-2.1845126152038574
119362601287.07492,d4:ca:6e:f1:72:6c,21.29114532470703,-84.51995849609375,96.77464294433594,-1.3587121963500977,1.4258277416229248,-1.9931540489196777
119362617957.40833,d4:ca:6e:f1:72:6c,12.959024429321289,-84.28907012939453,105.33230590820312,-0.9580862522125244,1.4082553386688232,-1.5779590606689453
119362634627.74173,d4:ca:6e:f1:72:6c,5.1646342277526855,-83.80989074707031,113.2685775756836,-0.8113833069801331,1.2343761920928955,-1.065659523010254
119362651298.07513,d4:ca:6e:f1:72:6c,-1.166078805923462,-83.1820068359375,119.63109588623047,-0.46893030405044556,0.8546674847602844,-0.5906362533569336
119362667968.40854,d4:ca:6e:f1:72:6c,-6.208241939544678,-82.3347396850586,124.65857696533203,-0.0017299902392551303,0.2551901042461395,-0.4194488525390625
119362684638.74194,d4:ca:6e:f1:72:6c,-10.16591739654541,-81.42178344726562,128.65155029296875,0.7913611531257629,-0.3972894847393036,-0.3540973663330078
119362701309.07535,d4:ca:6e:f1:72:6c,-13.449932098388672,-80.58618927001953,132.13232421875,1.4859135150909424,-0.3504236042499542,-0.23681926727294922
119362717979.40875,d4:ca:6e:f1:72:6c,-16.096202850341797,-79.94609832763672,135.09933471679688,1.1155961751937866,0.08818860352039337,-0.17203235626220703
119362734649.74216,d4:ca:6e:f1:72:6c,-18.202917098999023,-79.27415466308594,137.48480224609375,0.41339537501335144,0.5441297888755798,-0.15704822540283203
119362751320.07556,d4:ca:6e:f1:72:6c,-19.788700103759766,-78.48165130615234,139.22296142578125,0.5610361695289612,0.5948240756988525,0.13326454162597656
119362767990.40897,d4:ca:6e:f1:72:6c,-21.03690528869629,-77.71629333496094,140.57131958007812,0.6744794249534607,0.3466653525829315,0.4853668212890625
119362784660.74237,d4:ca:6e:f1:72:6c,-22.191299438476562,-77.02752685546875,141.81690979003906,0.807731032371521,0.1557154357433319,0.6332616806030273
119362801331.07578,d4:ca:6e:f1:72:6c,-23.22576904296875,-76.51507568359375,142.9657745361328,0.6662555932998657,0.24315080046653748,0.7368307113647461
119362818001.40918,d4:ca:6e:f1:72:6c,-23.870685577392578,-76.02967834472656,143.71800231933594,0.09510498493909836,0.23291189968585968,0.6186752319335938
119362834671.74258,d4:ca:6e:f1:72:6c,-24.220172882080078,-75.51082611083984,144.15008544921875,-0.1333414614200592,0.16520647704601288,0.6868743896484375
119362851342.07599,d4:ca:6e:f1:72:6c,-24.106264114379883,-74.88202667236328,144.1298370361328,-0.025129562243819237,0.021050449460744858,0.8924894332885742
119362868012.4094,d4:ca:6e:f1:72:6c,-23.923677444458008,-74.32054901123047,144.08482360839844,-0.13132928311824799,-0.025176722556352615,0.9242076873779297
119362884682.7428,d4:ca:6e:f1:72:6c,-23.516447067260742,-73.70902252197266,143.83595275878906,-0.09855658560991287,0.0457269512116909,0.8856821060180664
119362901353.0762,d4:ca:6e:f1:72:6c,-23.120376586914062,-73.12910461425781,143.60159301757812,-0.19588015973567963,-0.06864596903324127,0.9114341735839844
119362918023.4096,d4:ca:6e:f1:72:6c,-22.85906410217285,-72.53632354736328,143.50611877441406,-0.29654592275619507,-0.16744227707386017,0.7361049652099609
119362934693.74301,d4:ca:6e:f1:72:6c,-22.824188232421875,-71.95445251464844,143.6674041748047,0.1455875039100647,-0.37757763266563416,0.7562484741210938
119362951364.07642,d4:ca:6e:f1:72:6c,-22.983224868774414,-71.46964263916016,144.13287353515625,0.3107278347015381,-0.13062621653079987,0.8072385787963867
119362968034.40982,d4:ca:6e:f1:72:6c,-23.30126190185547,-71.05532836914062,144.84242248535156,0.0816955491900444,0.10207802802324295,0.8015565872192383
119362984704.74323,d4:ca:6e:f1:72:6c,-23.760051727294922,-70.65899658203125,145.65797424316406,-0.5240883827209473,0.49120068550109863,0.6621189117431641
119363001375.07663,d4:ca:6e:f1:72:6c,-24.2027645111084,-70.0860595703125,146.34461975097656,-0.40374061465263367,0.5113198757171631,0.5790834426879883
119363018045.41003,d4:ca:6e:f1:72:6c,-24.785123825073242,-69.52503967285156,147.08970642089844,-0.1275945007801056,0.42320525646209717,0.611724853515625
119363034715.74344,d4:ca:6e:f1:72:6c,-25.3183536529541,-68.87973022460938,147.71932983398438,-0.22344735264778137,0.48330631852149963,0.5280418395996094
119363051386.07684,d4:ca:6e:f1:72:6c,-25.680679321289062,-68.12135314941406,148.13455200195312,-0.0636560395359993,0.15433859825134277,0.6805562973022461
119363068056.41025,d4:ca:6e:f1:72:6c,-26.09059715270996,-67.42674255371094,148.56927490234375,-0.18318161368370056,-0.1455816924571991,0.7639045715332031
119363084726.74365,d4:ca:6e:f1:72:6c,-26.509855270385742,-66.8733139038086,148.9774932861328,-0.12127913534641266,-0.3289547562599182,0.7919158935546875
119363101397.07706,d4:ca:6e:f1:72:6c,-26.53916358947754,-66.35997772216797,149.01593017578125,-0.08565306663513184,-0.4699944257736206,0.7801809310913086
119363118067.41046,d4:ca:6e:f1:72:6c,-26.062273025512695,-65.72862243652344,148.64468383789062,-0.35730335116386414,-0.7503317594528198,0.5033054351806641
119363134737.74387,d4:ca:6e:f1:72:6c,-25.60860252380371,-65.23296356201172,148.42926025390625,-0.0917201042175293,-1.012405276298523,0.4726076126098633
119363151408.07727,d4:ca:6e:f1:72:6c,-24.990949630737305,-64.78662872314453,148.15293884277344,-0.7092508673667908,-0.46795734763145447,0.13020038604736328
119363168078.41068,d4:ca:6e:f1:72:6c,-24.07554817199707,-64.23983001708984,147.59359741210938,-0.9032403230667114,-0.7074795365333557,-0.18281269073486328
119363184748.74408,d4:ca:6e:f1:72:6c,-23.066360473632812,-63.68730545043945,146.95217895507812,-0.9245425462722778,-0.853460967540741,-0.4076986312866211
119363201419.07748,d4:ca:6e:f1:72:6c,-22.154979705810547,-63.15150451660156,146.4799041748047,-0.6838390231132507,-1.0555272102355957,-0.5551939010620117
119363218089.41089,d4:ca:6e:f1:72:6c,-21.476192474365234,-62.71320724487305,146.34527587890625,-0.4992542862892151,-0.8031414151191711,-0.7043771743774414
119363234759.7443,d4:ca:6e:f1:72:6c,-20.934526443481445,-62.2710075378418,146.3914031982422,-0.614307165145874,-0.4787757098674774,-0.9707403182983398
119363251430.0777,d4:ca:6e:f1:72:6c,-20.659196853637695,-61.813743591308594,146.66867065429688,-0.6657237410545349,-0.5081849694252014,-1.063126564025879
119363268100.4111,d4:ca:6e:f1:72:6c,-20.938631057739258,-61.493690490722656,147.44090270996094,-0.5059317350387573,-0.41907528042793274,-0.9616584777832031
119363284770.7445,d4:ca:6e:f1:72:6c,-20.94866943359375,-60.73152160644531,148.01596069335938,0.590131402015686,-1.0395063161849976,0.6762504577636719
119363301441.07791,d4:ca:6e:f1:72:6c,-20.579269409179688,-60.207366943359375,148.87660217285156,2.825965404510498,-4.6970062255859375,1.7250051498413086
119363318111.41132,d4:ca:6e:f1:72:6c,-20.227766036987305,-59.81965255737305,149.966064453125,0.08258133381605148,-0.42033466696739197,-0.5803689956665039
119363334781.74472,d4:ca:6e:f1:72:6c,-19.10987663269043,-58.287139892578125,150.27239990234375,1.7745802402496338,-0.09370680153369904,-0.37164783477783203
119363351452.07812,d4:ca:6e:f1:72:6c,-17.56916618347168,-56.02371597290039,150.135986328125,1.6476335525512695,0.4825081527233124,0.3811349868774414
119363368122.41153,d4:ca:6e:f1:72:6c,-16.569171905517578,-54.25021743774414,150.26783752441406,-2.194528579711914,5.0334086418151855,-0.23323631286621094
119363384792.74493,d4:ca:6e:f1:72:6c,-15.975218772888184,-52.6114501953125,149.82778930664062,-0.12255137413740158,4.778739929199219,3.689703941345215
119363401463.07834,d4:ca:6e:f1:72:6c,-15.684518814086914,-51.99518585205078,149.94007873535156,0.946511447429657,1.8745718002319336,2.8014211654663086
119363418133.41174,d4:ca:6e:f1:72:6c,-14.990726470947266,-50.70016860961914,149.98858642578125,0.16640019416809082,-0.5866087675094604,-0.8817453384399414
119363434803.74515,d4:ca:6e:f1:72:6c,-13.095480918884277,-47.25438690185547,149.27330017089844,-2.1496083736419678,-1.904227614402771,-3.3932480812072754
119363451474.07855,d4:ca:6e:f1:72:6c,-10.683040618896484,-43.03995895385742,148.42474365234375,1.491942048072815,0.4868807792663574,-0.013245582580566406
119363468144.41196,d4:ca:6e:f1:72:6c,-9.483955383300781,-41.31406021118164,148.30506896972656,1.4095304012298584,-1.134731411933899,2.0366716384887695
119363484814.74536,d4:ca:6e:f1:72:6c,-10.059669494628906,-41.28716278076172,149.26902770996094,1.1490424871444702,-0.07329615950584412,2.4824066162109375
119363501485.07877,d4:ca:6e:f1:72:6c,-11.73633861541748,-41.213233947753906,150.96658325195312,0.3895109295845032,-0.030030418187379837,1.9964008331298828
119363518155.41217,d4:ca:6e:f1:72:6c,-13.784570693969727,-40.3482551574707,152.72544860839844,0.766930341720581,-0.41680505871772766,1.243575096130371
119363534825.74557,d4:ca:6e:f1:72:6c,-16.130104064941406,-39.30499267578125,154.468994140625,1.1766047477722168,-0.416159987449646,0.6364831924438477
119363551496.07898,d4:ca:6e:f1:72:6c,-18.723987579345703,-38.57579040527344,156.29701232910156,0.9890041351318359,-0.056642595678567886,-0.4890918731689453
119363568166.41238,d4:ca:6e:f1:72:6c,-21.185604095458984,-38.0760383605957,158.06362915039062,0.8263707756996155,0.4519358277320862,-1.305190086364746
119363584836.74579,d4:ca:6e:f1:72:6c,-23.159788131713867,-37.51456069946289,159.5802459716797,0.6578782200813293,1.1023001670837402,-1.7768878936767578
119363601507.0792,d4:ca:6e:f1:72:6c,-24.457332611083984,-36.80146026611328,160.78834533691406,0.8166066408157349,1.391968846321106,-1.7667007446289062
119363618177.4126,d4:ca:6e:f1:72:6c,-25.08827018737793,-35.940399169921875,161.71768188476562,1.0821946859359741,1.3559165000915527,-1.6649713516235352
119363634847.746,d4:ca:6e:f1:72:6c,-25.155563354492188,-34.82797622680664,162.30081176757812,1.444061040878296,1.0439635515213013,-1.2974729537963867
119363651518.0794,d4:ca:6e:f1:72:6c,-24.87282371520996,-33.73200988769531,162.56451416015625,2.0415165424346924,0.6622327566146851,-0.34049224853515625
119363667704,d4:ca:6e:f1:72:6c,-24.43000030517578,-33.05080795288086,162.56289672851562,2.310391902923584,0.20716632902622223,1.0438156127929688
119363684374.3334,d4:ca:6e:f1:72:6c,-23.8809757232666,-33.07804870605469,162.29360961914062,2.1973347663879395,0.18054784834384918,2.7440996170043945
119363701044.66681,d4:ca:6e:f1:72:6c,-23.292097091674805,-33.996299743652344,161.8844451904297,1.8607466220855713,0.5387394428253174,4.082618713378906
119363717715.00021,d4:ca:6e:f1:72:6c,-22.541772842407227,-35.86611557006836,161.35511779785156,1.4932721853256226,0.11365874111652374,5.557851791381836
119363734385.33362,d4:ca:6e:f1:72:6c,-21.563405990600586,-38.275089263916016,160.65504455566406,0.9112124443054199,0.03078388050198555,5.452829360961914
119363751055.66702,d4:ca:6e:f1:72:6c,-21.684680938720703,-40.7344970703125,160.75804138183594,-1.7165510654449463,-2.0273399353027344,12.704851150512695
119363767726.00043,d4:ca:6e:f1:72:6c,-23.996305465698242,-43.947731018066406,162.76512145996094,-2.643204689025879,-2.18401837348938,9.650579452514648
119363784396.33383,d4:ca:6e:f1:72:6c,-27.04987144470215,-46.915008544921875,165.56698608398438,-2.4751150608062744,-1.100690484046936,4.054473876953125
119363801066.66724,d4:ca:6e:f1:72:6c,-30.202512741088867,-49.72199630737305,168.6382598876953,-1.5391534566879272,-0.9784828424453735,0.6721649169921875
119363817737.00064,d4:ca:6e:f1:72:6c,-33.74343490600586,-52.8199577331543,172.107177734375,-0.3171260952949524,-1.1063611507415771,-2.0282092094421387
119363834407.33405,d4:ca:6e:f1:72:6c,-36.771942138671875,-55.54399108886719,175.61453247070312,-3.4068305492401123,3.5539238452911377,-5.644596099853516
119363851077.66745,d4:ca:6e:f1:72:6c,-39.2613525390625,-57.639183044433594,178.6307373046875,-1.006279706954956,-0.11266586929559708,-6.109323501586914
119363867748.00085,d4:ca:6e:f1:72:6c,-41.6392707824707,-59.23691940307617,-178.80831909179688,-0.9077420830726624,1.0623385906219482,-6.700628280639648
119363884418.33426,d4:ca:6e:f1:72:6c,-43.665096282958984,-60.389705657958984,-176.8513641357422,-0.8525910973548889,0.9868349432945251,-8.229982376098633
119363901088.66766,d4:ca:6e:f1:72:6c,-44.81663131713867,-61.04375076293945,-175.99502563476562,-1.253841757774353,2.211888551712036,-9.292596817016602
119363917759.00107,d4:ca:6e:f1:72:6c,-45.77940368652344,-61.67194366455078,-175.46270751953125,-0.7587575912475586,1.9473110437393188,-9.581236839294434
119363934429.33447,d4:ca:6e:f1:72:6c,-46.62126159667969,-62.21575164794922,-175.1840362548828,-1.8093972206115723,2.516411066055298,-10.107193946838379
119363951099.66788,d4:ca:6e:f1:72:6c,-46.76250457763672,-62.365623474121094,-175.5137176513672,-2.1734139919281006,3.3427634239196777,-9.887338638305664
119363967770.00128,d4:ca:6e:f1:72:6c,-45.66081237792969,-61.891117095947266,-176.83224487304688,-1.6816076040267944,3.454996109008789,-10.007760047912598
119363984440.33469,d4:ca:6e:f1:72:6c,-43.3726692199707,-60.74469757080078,-178.91839599609375,-1.3609015941619873,3.3634395599365234,-9.982415199279785
119364001110.66809,d4:ca:6e:f1:72:6c,-40.034584045410156,-58.7856559753418,178.51792907714844,-0.8953145742416382,2.4262399673461914,-9.398554801940918
119364017781.0015,d4:ca:6e:f1:72:6c,-35.85166549682617,-56.04216766357422,175.73165893554688,-0.0013996101915836334,1.723658561706543,-7.538261413574219
119364034451.3349,d4:ca:6e:f1:72:6c,-31.32582664489746,-52.71221160888672,173.06004333496094,1.3467557430267334,0.051126495003700256,-3.6526107788085938
119364051121.6683,d4:ca:6e:f1:72:6c,-27.059661865234375,-49.37956619262695,170.82467651367188,2.0482869148254395,-2.196729898452759,1.923264503479004
119364067792.00171,d4:ca:6e:f1:72:6c,-23.028213500976562,-46.30709457397461,168.69189453125,1.143526315689087,-3.6515164375305176,9.084774017333984
119364084462.33511,d4:ca:6e:f1:72:6c,-19.20795249938965,-43.87721252441406,166.33631896972656,1.2141737937927246,-2.147327184677124,16.196006774902344
119364101132.66852,d4:ca:6e:f1:72:6c,-16.225435256958008,-42.143096923828125,164.26519775390625,0.9820680022239685,-2.3471314907073975,17.025211334228516
119364117803.00192,d4:ca:6e:f1:72:6c,-14.317269325256348,-41.00274658203125,162.80979919433594,1.4655029773712158,-1.9667820930480957,16.833131790161133
119364134473.33533,d4:ca:6e:f1:72:6c,-13.625840187072754,-40.72138977050781,162.24871826171875,1.714270830154419,-0.9226503968238831,15.633264541625977
119364151143.66873,d4:ca:6e:f1:72:6c,-14.11264419555664,-41.334678649902344,162.54855346679688,1.53761887550354,-0.0003143709618598223,13.154991149902344
119364167814.00214,d4:ca:6e:f1:72:6c,-15.698590278625488,-42.519554138183594,163.64932250976562,0.0957123264670372,-0.8736358284950256,9.809419631958008
119364184484.33554,d4:ca:6e:f1:72:6c,-18.274002075195312,-43.973548889160156,165.4488525390625,-0.7400692105293274,-1.1227082014083862,6.760820388793945
119364201154.66895,d4:ca:6e:f1:72:6c,-21.615318298339844,-45.591094970703125,167.7842254638672,-0.9474733471870422,-1.1993268728256226,4.236936569213867
119364217825.00235,d4:ca:6e:f1:72:6c,-25.392810821533203,-47.15558624267578,170.47312927246094,-0.3411708474159241,-1.3372803926467896,2.1371335983276367
119364234495.33575,d4:ca:6e:f1:72:6c,-29.4232120513916,-48.72329330444336,173.4579315185547,0.18411852419376373,-1.2562087774276733,0.27135658264160156
119364251165.66916,d4:ca:6e:f1:72:6c,-33.436553955078125,-50.13698196411133,176.4708251953125,0.2772100567817688,-1.3447740077972412,-1.3475065231323242
119364267836.00256,d4:ca:6e:f1:72:6c,-37.38020706176758,-51.39381790161133,179.43167114257812,0.46366360783576965,-1.3010544776916504,-2.491425037384033
119364284506.33597,d4:ca:6e:f1:72:6c,-41.242679595947266,-52.53092956542969,-177.65899658203125,0.39348578453063965,-1.2254022359848022,-3.622251510620117
119364301176.66937,d4:ca:6e:f1:72:6c,-44.96503448486328,-53.528480529785156,-174.8739013671875,-0.03944523259997368,-0.805944561958313,-4.929684638977051
119364317847.00278,d4:ca:6e:f1:72:6c,-48.37604522705078,-54.27620315551758,-172.4174041748047,-0.18024365603923798,-0.2516000270843506,-5.865390777587891
119364334517.33618,d4:ca:6e:f1:72:6c,-51.58067321777344,-54.86274337768555,-170.17947387695312,-0.1694965362548828,0.2519441246986389,-6.620323181152344
119364351187.66959,d4:ca:6e:f1:72:6c,-54.534175872802734,-55.27924728393555,-168.12498474121094,-0.5904942750930786,0.6300618648529053,-7.36946439743042
119364367858.00299,d4:ca:6e:f1:72:6c,-57.035282135009766,-55.50200653076172,-166.42005920410156,-0.9349216818809509,1.2919080257415771,-7.91253662109375
119364384528.3364,d4:ca:6e:f1:72:6c,-59.04743576049805,-55.59927749633789,-165.09225463867188,-1.0826811790466309,2.3457014560699463,-8.384820938110352
119364401198.6698,d4:ca:6e:f1:72:6c,-60.65567398071289,-55.67265319824219,-164.0040740966797,-1.2706435918807983,3.07643985748291,-8.616279602050781
119364417869.0032,d4:ca:6e:f1:72:6c,-61.58500289916992,-55.651668548583984,-163.35498046875,-1.700037956237793,4.065291404724121,-8.790581703186035
119364434539.33661,d4:ca:6e:f1:72:6c,-61.22683334350586,-55.3760871887207,-163.6911163330078,-2.0373353958129883,4.519388675689697,-8.912557601928711
119364451209.67001,d4:ca:6e:f1:72:6c,-59.36532211303711,-54.76337432861328,-165.17855834960938,-2.13430118560791,4.329118251800537,-9.082698822021484
119364467880.00342,d4:ca:6e:f1:72:6c,-56.13736343383789,-53.87498092651367,-167.63836669921875,-2.03078031539917,3.903424024581909,-8.90758228302002
119364484550.33682,d4:ca:6e:f1:72:6c,-51.776859283447266,-52.86341857910156,-170.8339080810547,-1.6850308179855347,2.8682196140289307,-7.975123405456543
119364501220.67023,d4:ca:6e:f1:72:6c,-46.39878463745117,-51.74618148803711,-174.7122802734375,-1.1286715269088745,1.5664113759994507,-6.8852338790893555
119364517891.00363,d4:ca:6e:f1:72:6c,-40.11927032470703,-50.25129699707031,-179.31451416015625,-0.2629293203353882,0.13002963364124298,-5.096249103546143
119364534561.33704,d4:ca:6e:f1:72:6c,-33.85309982299805,-48.42359161376953,176.1552276611328,1.3850398063659668,-2.255296230316162,-1.7593917846679688
119364551231.67044,d4:ca:6e:f1:72:6c,-28.30144500732422,-46.05989074707031,172.16822814941406,1.9895317554473877,-3.049076795578003,1.7983179092407227
119364567902.00385,d4:ca:6e:f1:72:6c,-23.896831512451172,-43.24691390991211,169.21954345703125,2.7495498657226562,-3.353714942932129,5.032405853271484
119364584572.33725,d4:ca:6e:f1:72:6c,-20.8853702545166,-40.48923873901367,167.57388305664062,2.4735145568847656,-3.9937822818756104,8.380491256713867
119364601242.67065,d4:ca:6e:f1:72:6c,-18.847017288208008,-37.82173538208008,166.7456512451172,1.6356570720672607,-2.9511702060699463,11.677080154418945
119364617913.00406,d4:ca:6e:f1:72:6c,-17.510507583618164,-35.34296417236328,166.35580444335938,1.0869907140731812,-2.082211494445801,13.914682388305664
119364634583.33746,d4:ca:6e:f1:72:6c,-17.02614974975586,-33.41282653808594,166.54989624023438,-0.33972305059432983,-1.7908135652542114,13.57841682434082
119364651253.67087,d4:ca:6e:f1:72:6c,-17.540603637695312,-32.22430419921875,167.51895141601562,-1.107327938079834,-1.4984015226364136,12.360651016235352
119364667924.00427,d4:ca:6e:f1:72:6c,-18.963945388793945,-31.894920349121094,169.3143768310547,-1.5367563962936401,-0.7475978136062622,10.62942886352539
119364684594.33768,d4:ca:6e:f1:72:6c,-21.082592010498047,-32.19207000732422,171.7405548095703,-1.3377330303192139,0.7466172575950623,8.851362228393555
119364701264.67108,d4:ca:6e:f1:72:6c,-23.632814407348633,-32.6677131652832,174.4544219970703,-1.2251917123794556,1.4968349933624268,6.713405609130859
119364717935.00449,d4:ca:6e:f1:72:6c,-26.336299896240234,-33.16109848022461,177.1007537841797,-0.19193825125694275,2.2594945430755615,6.031357765197754
119364734605.33789,d4:ca:6e:f1:72:6c,-29.00690269470215,-33.849971771240234,179.55877685546875,-0.19845877587795258,1.5537834167480469,4.651236534118652
119364751275.6713,d4:ca:6e:f1:72:6c,-31.480796813964844,-34.53138732910156,-178.3621368408203,-0.21546347439289093,1.323868989944458,4.114721298217773
119364767946.0047,d4:ca:6e:f1:72:6c,-33.79742431640625,-35.368629455566406,-176.50767517089844,0.4601477384567261,0.45312848687171936,3.5290775299072266
119364784616.3381,d4:ca:6e:f1:72:6c,-35.76504135131836,-36.31664276123047,-175.04098510742188,0.36335423588752747,-0.1357947587966919,3.416375160217285
119364801286.67151,d4:ca:6e:f1:72:6c,-37.457984924316406,-37.45295715332031,-173.92298889160156,0.78763347864151,-1.1593663692474365,2.9303359985351562
119364817957.00491,d4:ca:6e:f1:72:6c,-39.34907913208008,-39.05702590942383,-172.61770629882812,1.4255468845367432,-2.1483800411224365,1.6028671264648438
119364834627.33832,d4:ca:6e:f1:72:6c,-41.519771575927734,-40.8941764831543,-171.0642547607422,1.4559741020202637,-2.5052757263183594,0.1276102066040039
119364851297.67172,d4:ca:6e:f1:72:6c,-43.947566986083984,-42.767154693603516,-169.3084716796875,1.374233365058899,-2.590773105621338,-1.3582220077514648
119364867968.00513,d4:ca:6e:f1:72:6c,-46.57943344116211,-44.51215744018555,-167.4613800048828,1.1963459253311157,-2.1230051517486572,-2.6641383171081543
119364884638.33853,d4:ca:6e:f1:72:6c,-49.419376373291016,-46.08820724487305,-165.56723022460938,0.9094882011413574,-1.4555705785751343,-3.9286956787109375
119364901308.67194,d4:ca:6e:f1:72:6c,-52.43361282348633,-47.41365432739258,-163.67422485351562,0.6922624111175537,-0.6548215746879578,-5.141132354736328
119364917979.00534,d4:ca:6e:f1:72:6c,-55.60924530029297,-48.44264602661133,-161.729736328125,0.3819943070411682,-0.07079963386058807,-6.159977912902832
119364934649.33875,d4:ca:6e:f1:72:6c,-58.90202713012695,-49.17995071411133,-159.66513061523438,0.016447778791189194,0.5784986615180969,-6.879147529602051
119364951319.67215,d4:ca:6e:f1:72:6c,-62.18627166748047,-49.71577453613281,-157.51034545898438,-0.1983262598514557,1.2562369108200073,-7.337392807006836
119364967990.00555,d4:ca:6e:f1:72:6c,-65.16310119628906,-50.09484100341797,-155.5309295654297,-0.7331751585006714,1.9587329626083374,-7.586750030517578
119364984660.33896,d4:ca:6e:f1:72:6c,-67.48766326904297,-50.3098030090332,-154.0185089111328,-1.281209945678711,2.4477243423461914,-7.826845169067383
119365001330.67236,d4:ca:6e:f1:72:6c,-68.95471954345703,-50.32465744018555,-153.1156005859375,-1.8270293474197388,2.8526792526245117,-8.138567924499512
119365017686.3,d4:ca:6e:f1:72:6c,-69.49560546875,-50.13536834716797,-152.8701934814453,-2.0432212352752686,3.338681936264038,-8.098292350769043
119365034356.6334,d4:ca:6e:f1:72:6c,-69.17869567871094,-49.80815887451172,-153.2077178955078,-2.3895225524902344,3.832005023956299,-8.067911148071289
119365051026.96681,d4:ca:6e:f1:72:6c,-67.94205474853516,-49.3360481262207,-154.20814514160156,-2.4263296127319336,3.6249241828918457,-7.812773704528809
119365067697.30022,d4:ca:6e:f1:72:6c,-65.92745208740234,-48.7568473815918,-155.67823791503906,-2.0133039951324463,3.400987386703491,-7.39076042175293
119365084367.63362,d4:ca:6e:f1:72:6c,-63.16373825073242,-48.12781524658203,-157.55947875976562,-1.2830654382705688,2.928607940673828,-6.634894371032715
119365101037.96703,d4:ca:6e:f1:72:6c,-59.68010330200195,-47.49485397338867,-159.83953857421875,-0.6524025797843933,2.454850673675537,-6.028635025024414
119365117708.30043,d4:ca:6e:f1:72:6c,-55.48407745361328,-46.82286834716797,-162.64501953125,-0.17430637776851654,1.9507042169570923,-5.490899085998535
119365134378.63383,d4:ca:6e:f1:72:6c,-50.76554870605469,-46.040855407714844,-165.871337890625,0.22508902847766876,0.8385446071624756,-5.013756275177002
119365151048.96724,d4:ca:6e:f1:72:6c,-45.80329895019531,-45.15773010253906,-169.20687866210938,0.6059526801109314,-0.32941967248916626,-4.147131443023682
119365167719.30064,d4:ca:6e:f1:72:6c,-40.495182037353516,-44.10700225830078,-172.76324462890625,1.1987742185592651,-0.9219254851341248,-2.602515697479248
119365184389.63405,d4:ca:6e:f1:72:6c,-34.955448150634766,-42.8067741394043,-176.59339904785156,2.255096435546875,-1.767190933227539,-0.33895111083984375
119365201059.96745,d4:ca:6e:f1:72:6c,-29.677478790283203,-41.248775482177734,179.46536254882812,2.8972668647766113,-2.50653076171875,3.0213937759399414
119365217730.30086,d4:ca:6e:f1:72:6c,-25.08568000793457,-39.541934967041016,175.70033264160156,2.8826687335968018,-2.9512038230895996,7.3236236572265625
119365234400.63426,d4:ca:6e:f1:72:6c,-21.560937881469727,-38.10133361816406,172.75636291503906,1.651129126548767,-3.152029514312744,10.16950798034668
119365251070.96767,d4:ca:6e:f1:72:6c,-19.011930465698242,-36.9011116027832,170.7764434814453,0.22239868342876434,-2.716085195541382,12.206768035888672
119365267741.30107,d4:ca:6e:f1:72:6c,-17.21349334716797,-35.728363037109375,169.56405639648438,-0.8853521347045898,-0.848149299621582,13.248138427734375
119365284411.63448,d4:ca:6e:f1:72:6c,-15.933028221130371,-34.591915130615234,168.8472900390625,-1.3041160106658936,0.3619307279586792,14.247186660766602
119365301081.96788,d4:ca:6e:f1:72:6c,-15.282184600830078,-33.829463958740234,168.62709045410156,-1.4251315593719482,1.1324518918991089,14.727951049804688
119365317752.30128,d4:ca:6e:f1:72:6c,-15.415953636169434,-33.6708984375,168.91766357421875,-1.6084967851638794,1.402371883392334,14.294517517089844
119365334422.63469,d4:ca:6e:f1:72:6c,-16.31427001953125,-34.0513916015625,169.69757080078125,-1.7902047634124756,1.0118197202682495,12.355104446411133
119365351092.9681,d4:ca:6e:f1:72:6c,-17.848073959350586,-34.80538558959961,170.88430786132812,-1.6233763694763184,0.5963656902313232,9.966886520385742
119365367763.3015,d4:ca:6e:f1:72:6c,-19.821928024291992,-35.79902648925781,172.29519653320312,-1.124452829360962,0.28007569909095764,7.789304733276367
119365384433.6349,d4:ca:6e:f1:72:6c,-22.06903648376465,-36.95121383666992,173.8048095703125,-0.686753511428833,-0.24380619823932648,5.845515251159668
119365401103.9683,d4:ca:6e:f1:72:6c,-24.5169677734375,-38.32018280029297,175.411376953125,0.015779707580804825,-1.1777266263961792,4.365827560424805
119365417774.30171,d4:ca:6e:f1:72:6c,-27.159751892089844,-39.91840362548828,177.18251037597656,0.46736302971839905,-1.8978157043457031,3.0774898529052734
119365434444.63512,d4:ca:6e:f1:72:6c,-30.035242080688477,-41.63401412963867,179.14247131347656,1.0031369924545288,-2.2961463928222656,1.9131202697753906
119365451114.96852,d4:ca:6e:f1:72:6c,-33.09535217285156,-43.352264404296875,-178.73321533203125,1.2241603136062622,-2.4104812145233154,0.6851024627685547
119365467785.30193,d4:ca:6e:f1:72:6c,-36.210601806640625,-44.96141052246094,-176.52798461914062,1.1534663438796997,-2.249021291732788,-0.4498615264892578
119365484455.63533,d4:ca:6e:f1:72:6c,-39.35733413696289,-46.423240661621094,-174.27691650390625,1.2536654472351074,-2.2904233932495117,-1.6228523254394531
119365501125.96873,d4:ca:6e:f1:72:6c,-42.605987548828125,-47.781925201416016,-171.9158935546875,1.3066537380218506,-1.938207745552063,-2.5477242469787598
119365517796.30214,d4:ca:6e:f1:72:6c,-45.95042419433594,-49.0056266784668,-169.43746948242188,1.16049063205719,-1.6114572286605835,-3.313063621520996
119365534466.63554,d4:ca:6e:f1:72:6c,-49.24761962890625,-50.02769470214844,-166.99449157714844,0.849399745464325,-1.3017908334732056,-3.980936050415039
119365551136.96895,d4:ca:6e:f1:72:6c,-52.39236068725586,-50.819541931152344,-164.72056579589844,0.7770201563835144,-0.9356508255004883,-4.240116119384766
119365567807.30235,d4:ca:6e:f1:72:6c,-55.511627197265625,-51.42932891845703,-162.46603393554688,0.4147503674030304,-0.40028950572013855,-4.308407306671143
119365584477.63576,d4:ca:6e:f1:72:6c,-58.470245361328125,-51.87053298950195,-160.38461303710938,0.41197410225868225,-0.029392162337899208,-4.309154510498047
119365601147.96916,d4:ca:6e:f1:72:6c,-61.2825813293457,-52.24652099609375,-158.4246826171875,0.23888179659843445,0.3991177976131439,-4.203359603881836
119365617818.30257,d4:ca:6e:f1:72:6c,-63.90284729003906,-52.55752944946289,-156.5836639404297,-0.023948390036821365,0.73056960105896,-3.964798927307129
119365634488.63597,d4:ca:6e:f1:72:6c,-66.34635162353516,-52.85028839111328,-154.79962158203125,-0.18401581048965454,0.841953456401825,-3.578312397003174
119365651158.96938,d4:ca:6e:f1:72:6c,-68.51082611083984,-53.097713470458984,-153.15765380859375,-0.529585063457489,1.1034668684005737,-3.196906089782715
119365667829.30278,d4:ca:6e:f1:72:6c,-70.28760528564453,-53.30295181274414,-151.7601318359375,-0.6427695751190186,1.229670524597168,-2.6724605560302734
119365684499.63618,d4:ca:6e:f1:72:6c,-71.77086639404297,-53.51068878173828,-150.5139923095703,-0.6577799916267395,1.2434487342834473,-2.2183566093444824
119365701169.96959,d4:ca:6e:f1:72:6c,-73.10224914550781,-53.7337532043457,-149.27969360351562,-0.6851991415023804,1.1554560661315918,-1.8213610649108887
119365717840.303,d4:ca:6e:f1:72:6c,-74.25215911865234,-53.953636169433594,-148.1471405029297,-0.6222347021102905,1.1460654735565186,-1.456411361694336
119365734510.6364,d4:ca:6e:f1:72:6c,-75.25823211669922,-54.16978073120117,-147.0933380126953,-0.5218384265899658,1.1245942115783691,-0.8726511001586914
119365751180.9698,d4:ca:6e:f1:72:6c,-76.05402374267578,-54.35633087158203,-146.17962646484375,-0.5303589105606079,0.9163463711738586,-0.7588386535644531
119365767851.3032,d4:ca:6e:f1:72:6c,-76.60833740234375,-54.525733947753906,-145.41990661621094,-0.6215043663978577,0.8267494440078735,-0.38401031494140625
119365784521.63661,d4:ca:6e:f1:72:6c,-77.02838134765625,-54.71406555175781,-144.7288818359375,-0.7079864144325256,0.7845418453216553,-0.1930255889892578
119365801191.97002,d4:ca:6e:f1:72:6c,-77.33027648925781,-54.91057205200195,-144.12791442871094,-0.6179438829421997,0.7527586817741394,-0.3824348449707031
119365817862.30342,d4:ca:6e:f1:72:6c,-77.58110046386719,-55.094661712646484,-143.56080627441406,-0.4949166774749756,0.7681514620780945,-0.3673858642578125
119365834532.63683,d4:ca:6e:f1:72:6c,-77.83366394042969,-55.297767639160156,-142.9908905029297,-0.28778311610221863,0.7952940464019775,-0.43018245697021484
119365851202.97023,d4:ca:6e:f1:72:6c,-77.97897338867188,-55.49050521850586,-142.55615234375,-0.250299870967865,0.8090181350708008,-0.7873096466064453
119365867873.30363,d4:ca:6e:f1:72:6c,-78.0563735961914,-55.66298294067383,-142.21636962890625,-0.12366527318954468,0.6896597146987915,-0.9949779510498047
119365884543.63704,d4:ca:6e:f1:72:6c,-78.02674865722656,-55.79610061645508,-142.0088348388672,-0.09377895295619965,0.5373739004135132,-1.1555004119873047
119365901213.97044,d4:ca:6e:f1:72:6c,-77.8570556640625,-55.89935302734375,-141.93939208984375,0.06314782053232193,0.3535841703414917,-1.2829675674438477
119365917875.3,d4:ca:6e:f1:72:6c,-77.66206359863281,-55.94757843017578,-141.89923095703125,-0.024504410102963448,0.1529620736837387,-1.1482372283935547
119365934545.6334,d4:ca:6e:f1:72:6c,-77.67288970947266,-55.992103576660156,-141.76683044433594,0.2440265268087387,0.07041704654693604,-0.8585653305053711
119365951215.96681,d4:ca:6e:f1:72:6c,-77.87007141113281,-56.07073974609375,-141.5924530029297,0.22289647161960602,0.24357089400291443,-1.0632400512695312
119365967886.30022,d4:ca:6e:f1:72:6c,-78.02819061279297,-56.201107025146484,-141.48336791992188,0.07688373327255249,0.2226034551858902,-1.4578819274902344
119365984556.63362,d4:ca:6e:f1:72:6c,-78.16618347167969,-56.31049728393555,-141.41751098632812,-0.19804485142230988,0.06513480097055435,-1.7206449508666992
119366001226.96703,d4:ca:6e:f1:72:6c,-78.26071166992188,-56.37482452392578,-141.4684600830078,0.050626564770936966,-0.06658991426229477,-1.9150218963623047
119366017897.30043,d4:ca:6e:f1:72:6c,-78.23426818847656,-56.41340255737305,-141.6310272216797,-0.10053945332765579,-0.07344096153974533,-1.9666094779968262
119366034567.63383,d4:ca:6e:f1:72:6c,-78.23546600341797,-56.4541015625,-141.728271484375,0.19452841579914093,0.352873831987381,-2.0993127822875977
119366051237.96724,d4:ca:6e:f1:72:6c,-78.1401138305664,-56.47172927856445,-141.89682006835938,-0.05509500578045845,0.21033354103565216,-2.344019889831543
119366067908.30064,d4:ca:6e:f1:72:6c,-77.85302734375,-56.454750061035156,-142.2155303955078,-0.20292726159095764,0.08587789535522461,-2.3954381942749023
119366084578.63405,d4:ca:6e:f1:72:6c,-77.43568420410156,-56.41337203979492,-142.60536193847656,-0.31719353795051575,0.13336649537086487,-2.5658369064331055
119366101248.96745,d4:ca:6e:f1:72:6c,-76.82537078857422,-56.36977767944336,-143.13198852539062,-0.4679429233074188,0.24769996106624603,-2.5815014839172363
119366117919.30086,d4:ca:6e:f1:72:6c,-76.1085205078125,-56.33066940307617,-143.7130126953125,-0.597506046295166,0.17643670737743378,-2.626093864440918
119366134589.63426,d4:ca:6e:f1:72:6c,-75.31561279296875,-56.26869201660156,-144.3408203125,-0.6202718019485474,0.2770532965660095,-2.639402389526367
119366151259.96767,d4:ca:6e:f1:72:6c,-74.41594696044922,-56.191566467285156,-145.03379821777344,-0.5149650573730469,0.528517484664917,-2.6276941299438477
119366167930.30107,d4:ca:6e:f1:72:6c,-73.31709289550781,-56.1063346862793,-145.84762573242188,-0.8855293989181519,0.7034423351287842,-2.1131653785705566
119366184600.63448,d4:ca:6e:f1:72:6c,-71.7994155883789,-55.9421272277832,-147.03433227539062,-1.0346444845199585,0.6127360463142395,-2.014522075653076
119366201270.96788,d4:ca:6e:f1:72:6c,-70.32003784179688,-55.67875289916992,-148.12156677246094,-0.8428621888160706,0.7263090014457703,-1.4055662155151367
119366217941.30128,d4:ca:6e:f1:72:6c,-68.798095703125,-55.35593795776367,-149.27000427246094,-0.7410414218902588,1.0161867141723633,-1.0648422241210938
119366234611.63469,d4:ca:6e:f1:72:6c,-67.30162811279297,-55.01824951171875,-150.40072631835938,-0.6416931748390198,1.0418363809585571,-1.0382356643676758
119366251281.9681,d4:ca:6e:f1:72:6c,-65.84992218017578,-54.695064544677734,-151.48858642578125,-0.6663795113563538,1.0357890129089355,-0.9606094360351562
119366267952.3015,d4:ca:6e:f1:72:6c,-64.38641357421875,-54.39143371582031,-152.60386657714844,-0.7511191964149475,0.7251641750335693,-0.7599916458129883
119366284622.6349,d4:ca:6e:f1:72:6c,-62.91793441772461,-54.129024505615234,-153.7700653076172,-0.34817788004875183,0.16156642138957977,-0.6458311080932617
119366301292.9683,d4:ca:6e:f1:72:6c,-61.45703887939453,-53.91494369506836,-154.96392822265625,0.1092827320098877,-0.23230411112308502,-0.7979259490966797
119366317963.30171,d4:ca:6e:f1:72:6c,-59.990814208984375,-53.7467155456543,-156.15582275390625,0.57541424036026,-0.3120509088039398,-1.1811141967773438
119366334633.63512,d4:ca:6e:f1:72:6c,-58.43072509765625,-53.575321197509766,-157.3705596923828,0.5895418524742126,-0.5586118102073669,-1.6192169189453125
119366351303.96852,d4:ca:6e:f1:72:6c,-56.67399978637695,-53.32236099243164,-158.69126892089844,0.7843624949455261,-0.4840784966945648,-1.4486875534057617
119366367974.30193,d4:ca:6e:f1:72:6c,-54.853816986083984,-53.00562286376953,-159.9851531982422,0.863538384437561,-0.23508970439434052,-1.1891231536865234
119366384644.63533,d4:ca:6e:f1:72:6c,-52.94935607910156,-52.5317497253418,-161.28004455566406,1.170076608657837,-0.40185463428497314,-1.2612686157226562
119366401314.96873,d4:ca:6e:f1:72:6c,-51.226707458496094,-51.92790603637695,-162.3522491455078,1.259399652481079,-0.5368532538414001,-1.5150222778320312
119366417985.30214,d4:ca:6e:f1:72:6c,-49.60693359375,-51.15093231201172,-163.37088012695312,1.2821835279464722,-0.33452531695365906,-1.442469596862793
119366434655.63554,d4:ca:6e:f1:72:6c,-47.8976936340332,-50.24172592163086,-164.4714813232422,1.0191985368728638,-0.10440964996814728,-1.0068225860595703
119366451325.96895,d4:ca:6e:f1:72:6c,-45.937137603759766,-49.18690490722656,-165.7328338623047,0.43113699555397034,-0.24152734875679016,-0.3552417755126953
119366467996.30235,d4:ca:6e:f1:72:6c,-43.886661529541016,-48.007076263427734,-166.97593688964844,0.5201436877250671,-0.44873324036598206,0.09126949310302734
119366484666.63576,d4:ca:6e:f1:72:6c,-41.83340072631836,-46.75136947631836,-168.14703369140625,0.38389143347740173,-0.49623844027519226,0.26279163360595703
119366501336.96916,d4:ca:6e:f1:72:6c,-39.749229431152344,-45.473472595214844,-169.34242248535156,0.8277292847633362,-0.40404772758483887,0.6442594528198242
119366518007.30257,d4:ca:6e:f1:72:6c,-37.68564987182617,-44.338714599609375,-170.5251922607422,1.3048216104507446,-0.3517533838748932,0.7889928817749023
119366534677.63597,d4:ca:6e:f1:72:6c,-35.60228729248047,-43.39097595214844,-171.69386291503906,0.9661403298377991,-0.2888736128807068,0.9705572128295898
119366551347.96938,d4:ca:6e:f1:72:6c,-33.31509780883789,-42.310646057128906,-173.0354461669922,0.3759932219982147,-0.28005164861679077,1.2359085083007812
119366568018.30278,d4:ca:6e:f1:72:6c,-30.92325210571289,-41.0364875793457,-174.5419158935547,0.597357451915741,-0.406586617231369,2.003321647644043
119366584688.63618,d4:ca:6e:f1:72:6c,-28.58742904663086,-39.78134536743164,-176.1199951171875,0.6579922437667847,-0.4169609248638153,2.4544878005981445
119366601358.96959,d4:ca:6e:f1:72:6c,-26.27155303955078,-38.455299377441406,-177.72523498535156,0.4625581204891205,-0.6270070672035217,2.1456518173217773
119366618029.303,d4:ca:6e:f1:72:6c,-23.993650436401367,-36.823368072509766,-179.24017333984375,0.9811978340148926,-0.9311617612838745,1.7488842010498047
119366634699.6364,d4:ca:6e:f1:72:6c,-22.004640579223633,-34.94658279418945,179.7508087158203,1.8886191844940186,-1.5034666061401367,1.9762554168701172
119366651369.9698,d4:ca:6e:f1:72:6c,-20.79136848449707,-33.2376594543457,-179.95602416992188,2.5278096199035645,-2.797161817550659,1.8827495574951172
119366668040.3032,d4:ca:6e:f1:72:6c,-20.573787689208984,-32.06381607055664,-178.115234375,1.1910313367843628,-2.718775510787964,2.8433446884155273
119366684710.63661,d4:ca:6e:f1:72:6c,-21.347204208374023,-31.87592315673828,-175.20858764648438,-2.2462732791900635,-1.0793938636779785,3.9123878479003906
119366701380.97002,d4:ca:6e:f1:72:6c,-22.794355392456055,-32.33518981933594,-172.3794403076172,-5.322160243988037,1.143375039100647,5.150535583496094
119366718051.30342,d4:ca:6e:f1:72:6c,-23.962068557739258,-32.26783752441406,-170.96864318847656,-3.9409401416778564,2.829885721206665,3.9439029693603516
119366734721.63683,d4:ca:6e:f1:72:6c,-24.663347244262695,-31.945484161376953,-170.5726318359375,-0.7903809547424316,0.4437585771083832,2.702752113342285
119366751391.97023,d4:ca:6e:f1:72:6c,-25.33086395263672,-32.241119384765625,-169.86154174804688,1.5294477939605713,-0.6810399889945984,4.207052230834961
119366768062.30363,d4:ca:6e:f1:72:6c,-25.730228424072266,-32.393577575683594,-168.83680725097656,0.6400269269943237,-0.21921588480472565,0.6764545440673828
119366784732.63704,d4:ca:6e:f1:72:6c,-25.939157485961914,-31.783065795898438,-167.93894958496094,-1.6790906190872192,0.9125121831893921,0.20418739318847656
119366801402.97044,d4:ca:6e:f1:72:6c,-26.312070846557617,-31.293685913085938,-167.09315490722656,-0.6383879780769348,0.21805186569690704,1.8856868743896484
119366818073.30385,d4:ca:6e:f1:72:6c,-26.748916625976562,-30.88746452331543,-166.26512145996094,-0.1740800440311432,0.3308863341808319,1.0571603775024414
119366834743.63725,d4:ca:6e:f1:72:6c,-27.345108032226562,-30.63204002380371,-165.3197021484375,0.07221415638923645,0.31198251247406006,0.9990835189819336
119366851413.97066,d4:ca:6e:f1:72:6c,-28.08332633972168,-30.608427047729492,-164.3156280517578,-0.07364100962877274,0.47867801785469055,1.094315528869629
119366868084.30406,d4:ca:6e:f1:72:6c,-28.801076889038086,-30.731271743774414,-163.43292236328125,-0.404654324054718,0.7071966528892517,0.6277751922607422
119366884754.63747,d4:ca:6e:f1:72:6c,-29.45112419128418,-30.82718849182129,-162.69354248046875,-0.41269171237945557,0.6553692817687988,0.07137393951416016
119366901424.97087,d4:ca:6e:f1:72:6c,-30.030010223388672,-30.760129928588867,-162.09033203125,-0.2287653535604477,0.8913348913192749,-0.32909393310546875
119366918095.30428,d4:ca:6e:f1:72:6c,-30.626855850219727,-30.65552520751953,-161.5813446044922,-0.05649808049201965,1.0231341123580933,-0.1561298370361328
119366934765.63768,d4:ca:6e:f1:72:6c,-30.798307418823242,-30.157859802246094,-161.66427612304688,-1.0403029918670654,2.141256332397461,-1.2571001052856445
119366951435.97108,d4:ca:6e:f1:72:6c,-30.712993621826172,-30.34166717529297,-162.01321411132812,1.4818873405456543,2.5466561317443848,1.0385313034057617
119366968106.30449,d4:ca:6e:f1:72:6c,-30.538589477539062,-30.993196487426758,-162.444091796875,0.2751859724521637,0.9567214846611023,-0.47150135040283203
119366984776.6379,d4:ca:6e:f1:72:6c,-30.40945053100586,-31.23069953918457,-162.63702392578125,-0.004372765775769949,-0.6243898272514343,-1.880338191986084
119367001446.9713,d4:ca:6e:f1:72:6c,-30.584060668945312,-31.119524002075195,-162.5413055419922,-0.006386337801814079,-0.14771850407123566,-1.0428714752197266
119367018117.3047,d4:ca:6e:f1:72:6c,-31.092609405517578,-30.979747772216797,-162.3019561767578,-0.38064926862716675,0.13880352675914764,-0.5491447448730469
119367034787.6381,d4:ca:6e:f1:72:6c,-31.716264724731445,-30.673320770263672,-162.09446716308594,-0.37923702597618103,-0.07582267373800278,-0.3138713836669922
119367051457.97151,d4:ca:6e:f1:72:6c,-32.33869934082031,-30.228010177612305,-161.83506774902344,0.09430458396673203,-0.5480944514274597,-0.013978958129882812
119367068128.30492,d4:ca:6e:f1:72:6c,-32.783512115478516,-29.820947647094727,-161.59677124023438,0.17826662957668304,-0.19004757702350616,0.7920207977294922
119367084798.63832,d4:ca:6e:f1:72:6c,-32.98861312866211,-29.615570068359375,-161.30625915527344,0.0006052171811461449,-0.17812244594097137,0.6413726806640625
119367101468.97173,d4:ca:6e:f1:72:6c,-33.070953369140625,-29.640380859375,-160.86666870117188,-0.1855749487876892,-0.18312689661979675,0.45671749114990234
119367118139.30513,d4:ca:6e:f1:72:6c,-33.21565246582031,-29.6595401763916,-160.2030792236328,-0.677244246006012,-0.6270775198936462,-0.2552776336669922
119367134809.63853,d4:ca:6e:f1:72:6c,-33.30876922607422,-29.06598663330078,-159.7622833251953,-1.427503228187561,0.1313546597957611,-0.9364595413208008
119367151479.97194,d4:ca:6e:f1:72:6c,-33.14221954345703,-28.209657669067383,-159.73141479492188,-0.13543152809143066,0.1441853642463684,-0.10360050201416016
119367168150.30534,d4:ca:6e:f1:72:6c,-33.11585235595703,-27.519851684570312,-159.51902770996094,0.4576338827610016,-0.867913007736206,-0.5385141372680664
119367184820.63875,d4:ca:6e:f1:72:6c,-33.1380615234375,-26.71646499633789,-159.26234436035156,-0.46769779920578003,-0.5873791575431824,-0.649017333984375
119367201490.97215,d4:ca:6e:f1:72:6c,-33.37569046020508,-26.043954849243164,-158.92628479003906,-0.2827569842338562,-0.7957656383514404,0.36037349700927734
119367218161.30556,d4:ca:6e:f1:72:6c,-33.68639373779297,-25.61954116821289,-158.57183837890625,0.185100719332695,-0.35867002606391907,1.2119131088256836
119367234831.63896,d4:ca:6e:f1:72:6c,-33.92376708984375,-25.41629409790039,-158.23277282714844,0.114051952958107,-0.29530465602874756,0.8612489700317383
119367251501.97237,d4:ca:6e:f1:72:6c,-33.96988296508789,-25.297557830810547,-158.0395050048828,0.019269442185759544,0.03520893305540085,0.9480161666870117
119367267999.9,d4:ca:6e:f1:72:6c,-33.85929489135742,-25.302566528320312,-157.91519165039062,-0.3427768051624298,0.22415247559547424,0.8870983123779297
119367284670.2334,d4:ca:6e:f1:72:6c,-33.552528381347656,-25.30534553527832,-157.9430389404297,-0.13944992423057556,-0.004265185911208391,0.38191699981689453
119367301340.5668,d4:ca:6e:f1:72:6c,-33.1936149597168,-25.384870529174805,-157.96998596191406,-0.2350948601961136,-0.2259216159582138,0.737055778503418
119367318010.9002,d4:ca:6e:f1:72:6c,-32.844215393066406,-25.593921661376953,-157.92283630371094,-0.2005445957183838,-0.1338198333978653,0.7414283752441406
119367334681.23361,d4:ca:6e:f1:72:6c,-32.50030517578125,-25.75688362121582,-157.86178588867188,-0.3634490370750427,0.32975688576698303,-0.049513816833496094
119367351351.56702,d4:ca:6e:f1:72:6c,-32.283329010009766,-25.89820098876953,-157.7735137939453,-0.11351482570171356,0.43808287382125854,0.5458402633666992
119367368021.90042,d4:ca:6e:f1:72:6c,-32.20527648925781,-26.05997085571289,-157.78067016601562,-0.4056689143180847,0.13024692237377167,0.8828878402709961
119367384692.23383,d4:ca:6e:f1:72:6c,-32.211143493652344,-26.226003646850586,-157.63865661621094,0.5633476376533508,-0.1523439735174179,0.3577537536621094
119367401362.56723,d4:ca:6e:f1:72:6c,-32.330814361572266,-26.226579666137695,-157.3203582763672,-0.026238270103931427,0.6825791597366333,-0.9730262756347656
119367418032.90063,d4:ca:6e:f1:72:6c,-32.65569305419922,-25.97541046142578,-157.0634307861328,-0.46282660961151123,0.07855379581451416,-0.1442708969116211
119367434703.23404,d4:ca:6e:f1:72:6c,-32.91986846923828,-25.729238510131836,-156.8236541748047,-0.12677481770515442,-0.4077465534210205,0.5283746719360352
119367451373.56744,d4:ca:6e:f1:72:6c,-33.073394775390625,-25.617189407348633,-156.3013916015625,0.5069112777709961,-0.20984287559986115,0.8885126113891602
119367468043.90085,d4:ca:6e:f1:72:6c,-33.24705505371094,-25.692283630371094,-155.51211547851562,0.09906432032585144,0.10316092520952225,-0.27454280853271484
119367484714.23425,d4:ca:6e:f1:72:6c,-33.4442024230957,-25.428747177124023,-154.97100830078125,-1.2272628545761108,-0.29409801959991455,-0.7619285583496094
119367501384.56766,d4:ca:6e:f1:72:6c,-33.532196044921875,-25.168720245361328,-154.7017822265625,-0.4092075228691101,-0.9649156928062439,1.1013908386230469
119367518054.90106,d4:ca:6e:f1:72:6c,-33.499656677246094,-25.221851348876953,-154.302001953125,0.11712615191936493,-0.4619569778442383,1.260146141052246
119367534725.23447,d4:ca:6e:f1:72:6c,-33.387062072753906,-25.298242568969727,-153.6840362548828,0.5459854006767273,-0.003492865012958646,0.7681140899658203
119367551395.56787,d4:ca:6e:f1:72:6c,-33.23880386352539,-25.301424026489258,-152.911865234375,0.46235957741737366,0.37915873527526855,0.6457948684692383
119367568065.90128,d4:ca:6e:f1:72:6c,-33.06155776977539,-25.1459903717041,-152.53616333007812,-1.682283878326416,0.7265259623527527,0.06798934936523438
119367584736.23468,d4:ca:6e:f1:72:6c,-32.7546501159668,-25.0033016204834,-152.64466857910156,-0.3331364393234253,0.9433656930923462,0.5287990570068359
119367601406.56808,d4:ca:6e:f1:72:6c,-32.59346008300781,-24.90711784362793,-152.80621337890625,0.15374775230884552,1.2046411037445068,-1.1180076599121094
119367618076.90149,d4:ca:6e:f1:72:6c,-32.56930160522461,-24.827285766601562,-152.86500549316406,0.021390944719314575,1.3386790752410889,-0.9756155014038086
119367634747.2349,d4:ca:6e:f1:72:6c,-32.605831146240234,-24.64113998413086,-153.0231170654297,-0.5221098065376282,1.409010887145996,-0.7569303512573242
119367651417.5683,d4:ca:6e:f1:72:6c,-32.67414855957031,-24.47209930419922,-153.24034118652344,-0.31029948592185974,0.9861719012260437,-0.4014863967895508
119367668087.9017,d4:ca:6e:f1:72:6c,-32.79234313964844,-24.414630889892578,-153.4577178955078,-0.2178259789943695,0.23631681501865387,-0.3023252487182617
119367684758.2351,d4:ca:6e:f1:72:6c,-32.9686279296875,-24.422481536865234,-153.70111083984375,-0.9190727472305298,-0.3057115375995636,-0.4018526077270508
119367701428.56851,d4:ca:6e:f1:72:6c,-33.142189025878906,-24.484411239624023,-154.11099243164062,-0.5414878726005554,-1.1954967975616455,0.4772653579711914
119367718098.90192,d4:ca:6e:f1:72:6c,-33.32810974121094,-24.72397804260254,-154.5358123779297,0.40635809302330017,-1.4947044849395752,0.88409423828125
119367734769.23532,d4:ca:6e:f1:72:6c,-33.51802062988281,-24.99767303466797,-154.83309936523438,0.7021944522857666,-1.8836089372634888,0.6083841323852539
119367751439.56873,d4:ca:6e:f1:72:6c,-33.602874755859375,-25.1530704498291,-154.8429718017578,1.0903263092041016,-1.459618330001831,0.2191162109375
119367768109.90213,d4:ca:6e:f1:72:6c,-33.56652069091797,-25.183156967163086,-154.7254638671875,0.34383678436279297,-0.7906908392906189,-0.6928863525390625
119367784780.23553,d4:ca:6e:f1:72:6c,-33.49844741821289,-24.960800170898438,-154.70509338378906,0.11740688234567642,-1.0849567651748657,-0.4337615966796875
119367801450.56894,d4:ca:6e:f1:72:6c,-33.459537506103516,-24.87700843811035,-154.60813903808594,0.12678465247154236,-0.8995486497879028,-0.24225997924804688
119367818120.90234,d4:ca:6e:f1:72:6c,-33.5298957824707,-24.913976669311523,-154.29598999023438,0.33105987310409546,-0.1265634298324585,-0.6851701736450195
119367834791.23575,d4:ca:6e:f1:72:6c,-33.599220275878906,-24.744874954223633,-153.88877868652344,-0.519524335861206,0.5737252235412598,-1.412771224975586
119367851461.56915,d4:ca:6e:f1:72:6c,-33.54005813598633,-24.490894317626953,-153.4781036376953,-0.06764650344848633,0.3211209177970886,-0.13507556915283203
119367868131.90256,d4:ca:6e:f1:72:6c,-33.43179702758789,-24.50107192993164,-152.88345336914062,-0.1432155966758728,0.3150177299976349,0.2251291275024414
119367884802.23596,d4:ca:6e:f1:72:6c,-33.320682525634766,-24.48821258544922,-152.17776489257812,0.3201533257961273,0.4166553020477295,0.43201541900634766
119367901472.56937,d4:ca:6e:f1:72:6c,-33.19572067260742,-24.37638282775879,-151.36062622070312,0.11953014880418777,0.42373839020729065,0.6135425567626953
119367918142.90277,d4:ca:6e:f1:72:6c,-33.09333801269531,-24.078731536865234,-150.68707275390625,-0.699974775314331,0.4563919007778168,-0.1740398406982422
119367934813.23618,d4:ca:6e:f1:72:6c,-33.076873779296875,-23.739788055419922,-150.185546875,-0.7846870422363281,0.5749582052230835,-0.11355209350585938
119367951483.56958,d4:ca:6e:f1:72:6c,-33.211090087890625,-23.571334838867188,-149.8049774169922,-1.0182209014892578,0.6273410320281982,0.2812614440917969
119367968153.90298,d4:ca:6e:f1:72:6c,-33.414894104003906,-23.304412841796875,-149.73927307128906,-1.0195506811141968,0.472833514213562,0.07181549072265625
119367984824.23639,d4:ca:6e:f1:72:6c,-33.57661819458008,-23.12376594543457,-149.69776916503906,-0.7525778412818909,0.5092965960502625,0.5544033050537109
119368001494.5698,d4:ca:6e:f1:72:6c,-33.670684814453125,-22.889150619506836,-149.8251495361328,-0.8295973539352417,0.39046743512153625,-0.0582122802734375
119368018164.9032,d4:ca:6e:f1:72:6c,-33.81848907470703,-22.710079193115234,-149.93028259277344,-0.18597610294818878,-0.518142819404602,0.4259767532348633
119368034835.2366,d4:ca:6e:f1:72:6c,-33.94915008544922,-22.695880889892578,-149.86550903320312,0.42319461703300476,-0.9732725024223328,0.6133890151977539
119368051505.57,d4:ca:6e:f1:72:6c,-34.082130432128906,-22.713464736938477,-149.71429443359375,0.11547310650348663,-0.8402491211891174,0.36177730560302734
119368068175.90341,d4:ca:6e:f1:72:6c,-34.127628326416016,-22.860807418823242,-149.68231201171875,0.13473375141620636,-0.8795913457870483,1.1241893768310547
119368084846.23682,d4:ca:6e:f1:72:6c,-33.93445587158203,-23.142322540283203,-149.79066467285156,0.5442524552345276,-0.7902106046676636,0.6593551635742188
119368101516.57022,d4:ca:6e:f1:72:6c,-33.67002868652344,-23.358245849609375,-149.63092041015625,0.7484931945800781,-0.5227416157722473,-0.8382778167724609
119368118186.90363,d4:ca:6e:f1:72:6c,-33.5046501159668,-23.429601669311523,-149.31561279296875,0.115925133228302,0.5685716867446899,-0.7451372146606445
119368134857.23703,d4:ca:6e:f1:72:6c,-33.45418930053711,-23.295757293701172,-149.23301696777344,-0.08561814576387405,0.6742340922355652,-0.6561050415039062
119368151527.57043,d4:ca:6e:f1:72:6c,-32.814674377441406,-23.578659057617188,-150.2622833251953,0.2055521309375763,11.500093460083008,2.363560676574707
119368168197.90384,d4:ca:6e:f1:72:6c,-29.164283752441406,-26.648805618286133,-156.14822387695312,1.3190605640411377,15.680601119995117,0.3666067123413086
119368184868.23724,d4:ca:6e:f1:72:6c,-26.147371292114258,-27.63418197631836,-159.22808837890625,12.144584655761719,10.369455337524414,-11.76965618133545
119368201538.57065,d4:ca:6e:f1:72:6c,-24.324092864990234,-28.145946502685547,-162.0276336669922,0.11670678853988647,7.654306888580322,-4.54638147354126
119368218208.90405,d4:ca:6e:f1:72:6c,-23.45701026916504,-27.98210906982422,-165.76463317871094,3.1561901569366455,-3.1717610359191895,-1.153615951538086
119368234879.23746,d4:ca:6e:f1:72:6c,-24.433597564697266,-27.050363540649414,-167.59112548828125,1.7782611846923828,-12.14187240600586,3.1001739501953125
119368251549.57086,d4:ca:6e:f1:72:6c,-25.691268920898438,-26.350358963012695,-167.75779724121094,-1.1646698713302612,-13.414200782775879,9.156476974487305
119368268219.90427,d4:ca:6e:f1:72:6c,-26.396560668945312,-26.351852416992188,-167.36976623535156,-3.8291797637939453,-10.661722183227539,7.655977249145508
119368284890.23767,d4:ca:6e:f1:72:6c,-27.335142135620117,-26.455488204956055,-166.76828002929688,-4.927281379699707,-7.164018154144287,2.8988866806030273
119368301560.57108,d4:ca:6e:f1:72:6c,-28.42392349243164,-26.429197311401367,-165.9841766357422,-3.9626004695892334,-3.6231799125671387,1.3580055236816406
119368318001.6,d4:ca:6e:f1:72:6c,-29.03481674194336,-26.715654373168945,-165.1955108642578,-2.7426021099090576,-0.7880139350891113,1.2944402694702148
119368334671.93341,d4:ca:6e:f1:72:6c,-29.131553649902344,-27.49207305908203,-164.46311950683594,-2.0555944442749023,1.2475500106811523,-0.3851318359375
119368351342.26682,d4:ca:6e:f1:72:6c,-29.046415328979492,-28.29977798461914,-163.86959838867188,-1.046626329421997,2.679147481918335,-2.336087226867676
119368368012.60022,d4:ca:6e:f1:72:6c,-29.012104034423828,-29.000850677490234,-163.46307373046875,-0.22256861627101898,3.2467784881591797,-2.2849555015563965
119368384682.93362,d4:ca:6e:f1:72:6c,-28.99151611328125,-29.649587631225586,-163.37322998046875,0.28349703550338745,3.368211507797241,-1.7654438018798828
119368401353.26703,d4:ca:6e:f1:72:6c,-28.907785415649414,-30.38614845275879,-163.54409790039062,0.46871376037597656,2.541487216949463,-1.3772363662719727
119368418023.60043,d4:ca:6e:f1:72:6c,-28.787416458129883,-31.17951774597168,-163.72608947753906,0.5794905424118042,1.5498673915863037,-1.4040489196777344
119368434693.93384,d4:ca:6e:f1:72:6c,-28.79232406616211,-32.01771545410156,-163.76873779296875,0.41038262844085693,1.0387014150619507,-1.1519231796264648
119368451364.26724,d4:ca:6e:f1:72:6c,-28.782922744750977,-32.65380859375,-163.9327850341797,-0.6857869625091553,1.0282167196273804,-2.262601852416992
119368468034.60065,d4:ca:6e:f1:72:6c,-28.657865524291992,-32.71934509277344,-164.41954040527344,-0.3869071304798126,0.896648108959198,-1.8179011344909668
119368484704.93405,d4:ca:6e:f1:72:6c,-28.531801223754883,-32.62116622924805,-164.97598266601562,-0.14023457467556,0.31997910141944885,-0.47212982177734375
119368501375.26746,d4:ca:6e:f1:72:6c,-28.275760650634766,-32.51691818237305,-165.590087890625,0.5688760280609131,0.04805248975753784,0.164276123046875
119368518045.60086,d4:ca:6e:f1:72:6c,-27.879894256591797,-32.59271240234375,-166.1063690185547,0.74251788854599,-0.19017235934734344,0.6630954742431641
119368534715.93427,d4:ca:6e:f1:72:6c,-27.395389556884766,-32.776153564453125,-166.61485290527344,0.19160017371177673,-0.23382845520973206,0.6612958908081055
119368551386.26767,d4:ca:6e:f1:72:6c,-26.947965621948242,-32.91301727294922,-167.22850036621094,-0.3485751450061798,-0.503176212310791,0.30678558349609375
119368568056.60107,d4:ca:6e:f1:72:6c,-26.672086715698242,-32.9273796081543,-167.81565856933594,0.059894949197769165,-0.8497310280799866,0.49013519287109375
119368584726.93448,d4:ca:6e:f1:72:6c,-26.52467918395996,-32.991905212402344,-168.2343292236328,0.21636296808719635,-0.7257013916969299,0.8008899688720703
119368601397.26788,d4:ca:6e:f1:72:6c,-26.315946578979492,-33.14659881591797,-168.60202026367188,0.09401285648345947,-0.20114929974079132,0.8833084106445312
119368618067.60129,d4:ca:6e:f1:72:6c,-26.072717666625977,-33.40715789794922,-168.96559143066406,-0.1538161188364029,-0.19467908143997192,0.7244939804077148
119368634737.9347,d4:ca:6e:f1:72:6c,-25.93116569519043,-33.648216247558594,-169.27734375,-0.15696820616722107,-0.08752600848674774,0.39452171325683594
119368651408.2681,d4:ca:6e:f1:72:6c,-25.908607482910156,-33.781951904296875,-169.59886169433594,-0.24177782237529755,0.20266646146774292,0.13513851165771484
119368668078.6015,d4:ca:6e:f1:72:6c,-25.920080184936523,-33.858421325683594,-170.0100555419922,-0.11600980162620544,0.025045493617653847,0.7778186798095703
119368684748.9349,d4:ca:6e:f1:72:6c,-25.909832000732422,-34.02315902709961,-170.40545654296875,-0.03457113727927208,-0.28855305910110474,0.804072380065918
119368701419.26831,d4:ca:6e:f1:72:6c,-25.877817153930664,-34.24827575683594,-170.6993865966797,-0.07667437195777893,-0.4936562478542328,0.39217281341552734
119368718089.60172,d4:ca:6e:f1:72:6c,-25.88807487487793,-34.45998001098633,-170.8799591064453,-0.2541283071041107,-0.430589497089386,-0.08037853240966797
119368734759.93512,d4:ca:6e:f1:72:6c,-25.953859329223633,-34.61572265625,-170.99853515625,-0.48880094289779663,-0.41685089468955994,-0.11078834533691406
119368751430.26852,d4:ca:6e:f1:72:6c,-26.037479400634766,-34.71335220336914,-171.0819854736328,-0.5107797980308533,-0.47241145372390747,-0.24440860748291016
119368768100.60193,d4:ca:6e:f1:72:6c,-26.13080596923828,-34.76263427734375,-171.10638427734375,-0.33707547187805176,-0.5206093192100525,-0.26953983306884766
119368784770.93533,d4:ca:6e:f1:72:6c,-26.22364044189453,-34.77128982543945,-171.10279846191406,-0.3553721308708191,-0.4118683934211731,-0.24685955047607422
119368801441.26874,d4:ca:6e:f1:72:6c,-26.333965301513672,-34.7492790222168,-171.12159729003906,-0.40584227442741394,-0.37682417035102844,-0.25796031951904297
119368818111.60214,d4:ca:6e:f1:72:6c,-26.412616729736328,-34.673099517822266,-171.19129943847656,-0.35924893617630005,-0.2894677519798279,-0.25992298126220703
119368834781.93555,d4:ca:6e:f1:72:6c,-26.40874481201172,-34.630496978759766,-171.29177856445312,-0.16979506611824036,-0.4804523289203644,0.05728721618652344
119368851452.26895,d4:ca:6e:f1:72:6c,-26.37373161315918,-34.61530303955078,-171.32211303710938,-0.29867297410964966,-0.49404722452163696,-0.29590702056884766
119368868122.60236,d4:ca:6e:f1:72:6c,-26.352479934692383,-34.493492126464844,-171.3260955810547,-0.4005320072174072,-0.3312110900878906,-0.33341503143310547
119368884792.93576,d4:ca:6e:f1:72:6c,-26.375215530395508,-34.375083923339844,-171.28607177734375,-0.19997771084308624,-0.3702140152454376,0.034117698669433594
119368901463.26917,d4:ca:6e:f1:72:6c,-26.419179916381836,-34.25946807861328,-171.18911743164062,-0.17661075294017792,-0.20978274941444397,-0.12700176239013672
119368918133.60257,d4:ca:6e:f1:72:6c,-26.471940994262695,-34.102962493896484,-171.1604766845703,-0.35534602403640747,0.12898243963718414,-0.018616676330566406
119368934803.93597,d4:ca:6e:f1:72:6c,-26.495018005371094,-34.00541687011719,-171.20730590820312,-0.06654570251703262,-0.019033560529351234,0.3491687774658203
119368951474.26938,d4:ca:6e:f1:72:6c,-26.48125457763672,-33.96101379394531,-171.19981384277344,0.20982661843299866,-0.2215820997953415,0.33449554443359375
119368968144.60278,d4:ca:6e:f1:72:6c,-26.5084285736084,-33.91139602661133,-171.07061767578125,-0.08177226036787033,-0.16815242171287537,0.1967153549194336
119368984814.93619,d4:ca:6e:f1:72:6c,-26.602130889892578,-33.85274124145508,-170.88290405273438,0.0038474053144454956,-0.012917360290884972,0.3263692855834961
