sep=,
Measurement Mode:,Complete (Euler)
StartTime:,Sat, 12 Mar 2022 16:28:08 GMT
© Xsens Technologies B. V. 2005-2022

Timestamp,Address,Euler_x,Euler_y,Euler_z,FreeAcc_x,FreeAcc_y,FreeAcc_z
118266716732.1324,d4:ca:6e:f1:72:6c,-1.263034462928772,-0.11905237287282944,-165.3241729736328,-0.018777357414364815,0.008018427528440952,-0.011356353759765625
118266733402.4658,d4:ca:6e:f1:72:6c,-1.2623379230499268,-0.12023479491472244,-165.31381225585938,-0.01335615199059248,-0.0052415053360164165,-0.008378028869628906
118266750072.79921,d4:ca:6e:f1:72:6c,-1.2607471942901611,-0.12129495292901993,-165.30459594726562,-0.01649993471801281,-0.021332740783691406,-0.007999420166015625
118266766743.13261,d4:ca:6e:f1:72:6c,-1.260825753211975,-0.12115538865327835,-165.2944793701172,-0.014579080045223236,-0.031553056091070175,-0.014481544494628906
118266783413.46602,d4:ca:6e:f1:72:6c,-1.2605334520339966,-0.11973900347948074,-165.28341674804688,-0.02345903031527996,-0.022700833156704903,-0.03489494323730469
118266800083.79942,d4:ca:6e:f1:72:6c,-1.2603832483291626,-0.11980468034744263,-165.27252197265625,-0.019372055307030678,-0.010557500645518303,-0.013083457946777344
118266816754.13283,d4:ca:6e:f1:72:6c,-1.2610816955566406,-0.12060318887233734,-165.2613983154297,-0.021169336512684822,-0.002958480268716812,-0.013614654541015625
118266833424.46623,d4:ca:6e:f1:72:6c,-1.260561466217041,-0.12075083702802658,-165.25128173828125,-0.01327578816562891,-0.005563192069530487,-0.011507034301757812
118266849488.8,d4:ca:6e:f1:72:6c,-1.2606467008590698,-0.12142664939165115,-165.24082946777344,-0.024698689579963684,0.011386715807020664,-0.01736927032470703
118266866159.1334,d4:ca:6e:f1:72:6c,-1.2613164186477661,-0.121290422976017,-165.2305145263672,-0.01575678028166294,-0.00003078912777709775,-0.02563953399658203
118266882829.46681,d4:ca:6e:f1:72:6c,-1.2615056037902832,-0.12182441353797913,-165.22076416015625,-0.018675563856959343,-0.004274129867553711,-0.005278587341308594
118266899499.80022,d4:ca:6e:f1:72:6c,-1.2611027956008911,-0.1217416301369667,-165.21142578125,-0.013535687699913979,-0.01651008240878582,-0.014852523803710938
118266916170.13362,d4:ca:6e:f1:72:6c,-1.2610634565353394,-0.12115778028964996,-165.20193481445312,-0.018920335918664932,-0.012842511758208275,-0.012582778930664062
118266932840.46703,d4:ca:6e:f1:72:6c,-1.2609151601791382,-0.12013785541057587,-165.1924591064453,-0.009173570200800896,-0.009946133010089397,-0.013417243957519531
118266949510.80043,d4:ca:6e:f1:72:6c,-1.2607085704803467,-0.12119322270154953,-165.1822052001953,-0.013958620838820934,-0.012529855594038963,-0.004471778869628906
118266966181.13383,d4:ca:6e:f1:72:6c,-1.261857271194458,-0.1219283789396286,-165.17117309570312,-0.02517831139266491,-0.014598404057323933,-0.014371871948242188
118266982851.46724,d4:ca:6e:f1:72:6c,-1.261725902557373,-0.12148269265890121,-165.1599578857422,-0.018693607300519943,-0.011033558286726475,-0.0036401748657226562
118266999521.80064,d4:ca:6e:f1:72:6c,-1.2624287605285645,-0.12170423567295074,-165.14939880371094,-0.008844095282256603,-0.007722439710050821,-0.0129852294921875
118267016192.13405,d4:ca:6e:f1:72:6c,-1.2607167959213257,-0.12144312262535095,-165.13897705078125,-0.019343866035342216,-0.008782175369560719,-0.017525672912597656
118267032862.46745,d4:ca:6e:f1:72:6c,-1.260729432106018,-0.12155188620090485,-165.12841796875,-0.028355423361063004,0.0040267035365104675,-0.016933441162109375
118267049532.80086,d4:ca:6e:f1:72:6c,-1.2604255676269531,-0.12232524901628494,-165.11903381347656,-0.014649933204054832,-0.006965037900954485,-0.007651329040527344
118267066203.13426,d4:ca:6e:f1:72:6c,-1.2595878839492798,-0.12198951095342636,-165.10891723632812,-0.025194335728883743,-0.010916503146290779,-0.021864891052246094
118267082873.46767,d4:ca:6e:f1:72:6c,-1.2604092359542847,-0.12086070328950882,-165.0998992919922,-0.01265158411115408,-0.015441717579960823,-0.011578559875488281
118267099543.80107,d4:ca:6e:f1:72:6c,-1.2610024213790894,-0.11940818279981613,-165.09100341796875,-0.010451517067849636,-0.01301383227109909,-0.013993263244628906
118267116214.13448,d4:ca:6e:f1:72:6c,-1.2628746032714844,-0.11945788562297821,-165.0806427001953,-0.015982944518327713,-0.01806902326643467,-0.01611042022705078
118267132884.46788,d4:ca:6e:f1:72:6c,-1.2638393640518188,-0.11898137629032135,-165.0704345703125,-0.008993974886834621,-0.0035451576113700867,-0.013032913208007812
118267149554.80128,d4:ca:6e:f1:72:6c,-1.2649831771850586,-0.11889583617448807,-165.05882263183594,-0.020953094586730003,-0.010797063820064068,-0.009278297424316406
118267166225.13469,d4:ca:6e:f1:72:6c,-1.2643752098083496,-0.11912426352500916,-165.0489501953125,-0.013397829607129097,-0.002590210409834981,-0.004467964172363281
118267182895.4681,d4:ca:6e:f1:72:6c,-1.2634503841400146,-0.11873743683099747,-165.03883361816406,-0.010523812845349312,-0.015086139552295208,-0.009688377380371094
118267199565.8015,d4:ca:6e:f1:72:6c,-1.2644859552383423,-0.11918358504772186,-165.02992248535156,-0.011259105987846851,-0.01645541563630104,-0.015804290771484375
118267216236.1349,d4:ca:6e:f1:72:6c,-1.2635563611984253,-0.1180889829993248,-165.0194549560547,-0.025200283154845238,-0.01990039274096489,-0.013592720031738281
118267232906.4683,d4:ca:6e:f1:72:6c,-1.2632124423980713,-0.11783187836408615,-165.0092010498047,-0.016633544117212296,-0.01864127814769745,-0.001773834228515625
118267249576.80171,d4:ca:6e:f1:72:6c,-1.263053059577942,-0.11820085346698761,-164.99851989746094,-0.023207051679491997,-0.019885601475834846,-0.00872039794921875
118267266247.13512,d4:ca:6e:f1:72:6c,-1.2622424364089966,-0.11770554631948471,-164.98814392089844,-0.01824432797729969,-0.0027392269112169743,-0.011934280395507812
118267282917.46852,d4:ca:6e:f1:72:6c,-1.2617138624191284,-0.11824577301740646,-164.97796630859375,-0.004762678872793913,-0.011222079396247864,-0.014632225036621094
118267299587.80193,d4:ca:6e:f1:72:6c,-1.2611069679260254,-0.11863285303115845,-164.96774291992188,-0.017904944717884064,0.0037670244928449392,-0.0046234130859375
118267316258.13533,d4:ca:6e:f1:72:6c,-1.2610042095184326,-0.11975804716348648,-164.9569091796875,-0.03374378755688667,-0.014017573557794094,-0.003368377685546875
118267332928.46873,d4:ca:6e:f1:72:6c,-1.2603060007095337,-0.11980191618204117,-164.94813537597656,-0.01852508820593357,-0.0060392203740775585,-0.012616157531738281
118267349598.80214,d4:ca:6e:f1:72:6c,-1.258908748626709,-0.11937723308801651,-164.93812561035156,-0.020730867981910706,-0.015378269366919994,-0.017709732055664062
118267366269.13554,d4:ca:6e:f1:72:6c,-1.2599906921386719,-0.11884520947933197,-164.927001953125,-0.018059762194752693,-0.02391735650599003,-0.007976531982421875
118267382939.46895,d4:ca:6e:f1:72:6c,-1.260093092918396,-0.11781490594148636,-164.9171600341797,-0.006484764628112316,-0.024991700425744057,-0.007111549377441406
118267399609.80235,d4:ca:6e:f1:72:6c,-1.2607403993606567,-0.11719878762960434,-164.90576171875,-0.028199777007102966,-0.011997357942163944,-0.033367156982421875
118267416280.13576,d4:ca:6e:f1:72:6c,-1.2611231803894043,-0.1154356524348259,-164.8936004638672,-0.014818776398897171,-0.009400315582752228,-0.010876655578613281
118267432950.46916,d4:ca:6e:f1:72:6c,-1.2621257305145264,-0.11558856070041656,-164.88137817382812,0.0014347366522997618,-0.03453653305768967,-0.010724067687988281
118267449620.80257,d4:ca:6e:f1:72:6c,-1.2626726627349854,-0.11641187965869904,-164.86880493164062,-0.019992157816886902,-0.017255375161767006,-0.01971435546875
118267466291.13597,d4:ca:6e:f1:72:6c,-1.2612273693084717,-0.11717539280653,-164.85708618164062,-0.023799320682883263,0.0029124347493052483,-0.01566314697265625
118267482961.46938,d4:ca:6e:f1:72:6c,-1.2608336210250854,-0.11645359545946121,-164.845703125,-0.021386953070759773,0.011606207117438316,-0.00316619873046875
118267499631.80278,d4:ca:6e:f1:72:6c,-1.2618123292922974,-0.11672352999448776,-164.8339385986328,-0.024477161467075348,-0.0058138445019721985,-0.02597522735595703
118267516302.13618,d4:ca:6e:f1:72:6c,-1.2614690065383911,-0.1168108731508255,-164.82293701171875,-0.024249572306871414,-0.005598093848675489,-0.0007638931274414062
118267532972.46959,d4:ca:6e:f1:72:6c,-1.2617733478546143,-0.11728355288505554,-164.81204223632812,-0.009214858524501324,-0.0022437043953686953,-0.009654045104980469
118267549642.803,d4:ca:6e:f1:72:6c,-1.2604174613952637,-0.11852263659238815,-164.80113220214844,-0.01346541941165924,-0.00037301628617569804,-0.0038156509399414062
118267566313.1364,d4:ca:6e:f1:72:6c,-1.2604916095733643,-0.11847646534442902,-164.79115295410156,-0.01200166530907154,0.006781492382287979,-0.01531219482421875
118267582983.4698,d4:ca:6e:f1:72:6c,-1.2584058046340942,-0.11835430562496185,-164.7816925048828,-0.017712228000164032,0.006179044488817453,-0.03160572052001953
118267599653.8032,d4:ca:6e:f1:72:6c,-1.2574691772460938,-0.11782705038785934,-164.773193359375,-0.022879792377352715,0.008246392011642456,-0.011087417602539062
118267616324.13661,d4:ca:6e:f1:72:6c,-1.2570421695709229,-0.11967361718416214,-164.7646484375,-0.01246698945760727,0.0029979273676872253,-0.013195037841796875
118267632994.47002,d4:ca:6e:f1:72:6c,-1.2563390731811523,-0.11903919279575348,-164.75733947753906,-0.02048269286751747,-0.03647077828645706,-0.016562461853027344
118267649664.80342,d4:ca:6e:f1:72:6c,-1.2578729391098022,-0.11981072276830673,-164.74819946289062,-0.0032719590235501528,-0.04668472334742546,-0.0032987594604492188
118267666335.13683,d4:ca:6e:f1:72:6c,-1.2587368488311768,-0.11812224239110947,-164.7374267578125,-0.009967349469661713,-0.05265483260154724,-0.021080970764160156
118267683005.47023,d4:ca:6e:f1:72:6c,-1.2585653066635132,-0.11660202592611313,-164.72511291503906,-0.0199994295835495,-0.027520352974534035,-0.008950233459472656
118267699675.80363,d4:ca:6e:f1:72:6c,-1.2589771747589111,-0.11606086045503616,-164.7140350341797,-0.021280067041516304,0.012463930994272232,-0.020165443420410156
118267716346.13704,d4:ca:6e:f1:72:6c,-1.2595555782318115,-0.11455061286687851,-164.7036895751953,-0.029366232454776764,0.03849584236741066,-0.016997337341308594
118267733016.47044,d4:ca:6e:f1:72:6c,-1.2606178522109985,-0.11201170086860657,-164.6952667236328,-0.023643741384148598,0.047251246869564056,-0.0263671875
118267749553.9,d4:ca:6e:f1:72:6c,-1.2617769241333008,-0.11122452467679977,-164.68653869628906,-0.020822767168283463,0.03103005513548851,-0.00443267822265625
118267766224.2334,d4:ca:6e:f1:72:6c,-1.2623400688171387,-0.10991936922073364,-164.6793975830078,-0.013408809900283813,0.017027540132403374,0.0002574920654296875
118267782894.5668,d4:ca:6e:f1:72:6c,-1.2630131244659424,-0.11015568673610687,-164.67225646972656,-0.009376540780067444,-0.002953428542241454,-0.00640869140625
118267799564.9002,d4:ca:6e:f1:72:6c,-1.2628687620162964,-0.11095345765352249,-164.66554260253906,-0.018382051959633827,-0.013698984868824482,-0.014000892639160156
118267816235.23361,d4:ca:6e:f1:72:6c,-1.2634779214859009,-0.1110280379652977,-164.65708923339844,0.003037587273865938,-0.024255946278572083,-0.02312469482421875
118267832905.56702,d4:ca:6e:f1:72:6c,-1.2643165588378906,-0.1106167882680893,-164.6462860107422,-0.001377540873363614,-0.057136520743370056,-0.019109725952148438
118267849575.90042,d4:ca:6e:f1:72:6c,-1.264235258102417,-0.11073257029056549,-164.63400268554688,-0.00872762594372034,-0.0708848387002945,-0.0025157928466796875
118267866246.23383,d4:ca:6e:f1:72:6c,-1.2642918825149536,-0.11091625690460205,-164.62152099609375,-0.01724158599972725,-0.05153895542025566,-0.022176742553710938
118267882916.56723,d4:ca:6e:f1:72:6c,-1.2646516561508179,-0.10959728062152863,-164.60890197753906,-0.027248667553067207,-0.002509560901671648,0.00031185150146484375
118267899586.90063,d4:ca:6e:f1:72:6c,-1.264482855796814,-0.10927162319421768,-164.59739685058594,-0.019131207838654518,0.05248139426112175,-0.027669906616210938
118267916257.23404,d4:ca:6e:f1:72:6c,-1.2651714086532593,-0.10981500893831253,-164.5888214111328,-0.009998208843171597,0.07963632047176361,-0.0022287368774414062
118267932927.56744,d4:ca:6e:f1:72:6c,-1.265802025794983,-0.11000309884548187,-164.58111572265625,-0.017984934151172638,0.06306687742471695,-0.0022573471069335938
118267949597.90085,d4:ca:6e:f1:72:6c,-1.2655109167099,-0.11175528168678284,-164.5751190185547,-0.009750119410455227,-0.009196305647492409,0.0030241012573242188
118267966268.23425,d4:ca:6e:f1:72:6c,-1.2655887603759766,-0.11180511862039566,-164.5666046142578,-0.001648847246542573,-0.06362418830394745,-0.008678436279296875
118267982938.56766,d4:ca:6e:f1:72:6c,-1.2661235332489014,-0.112653449177742,-164.5564422607422,-0.0024923833552747965,-0.11498170346021652,-0.012144088745117188
118267999608.90106,d4:ca:6e:f1:72:6c,-1.264868974685669,-0.11282877624034882,-164.54335021972656,-0.012782423757016659,-0.09848393499851227,-0.021485328674316406
118268016279.23447,d4:ca:6e:f1:72:6c,-1.2635747194290161,-0.11353623121976852,-164.52976989746094,-0.00578139815479517,-0.030744796618819237,-0.0038547515869140625
118268032949.56787,d4:ca:6e:f1:72:6c,-1.263522744178772,-0.11316708475351334,-164.5170135498047,-0.006470649503171444,0.04899175092577934,-0.016666412353515625
118268049619.90128,d4:ca:6e:f1:72:6c,-1.2618837356567383,-0.11357542872428894,-164.50563049316406,-0.029284723103046417,0.07990418374538422,-0.008998870849609375
118268066290.23468,d4:ca:6e:f1:72:6c,-1.2613039016723633,-0.11265058070421219,-164.49546813964844,-0.02033315785229206,0.08289459347724915,-0.00952911376953125
118268082960.56808,d4:ca:6e:f1:72:6c,-1.2619298696517944,-0.11255496740341187,-164.48812866210938,-0.01937057636678219,0.04720497503876686,-0.03648948669433594
118268099630.90149,d4:ca:6e:f1:72:6c,-1.261436939239502,-0.1139325201511383,-164.48202514648438,-0.028368795290589333,-0.009622450917959213,-0.014348983764648438
118268116301.2349,d4:ca:6e:f1:72:6c,-1.2598737478256226,-0.11438407003879547,-164.4757537841797,-0.008221554569900036,-0.04676803946495056,0.0009641647338867188
118268132971.5683,d4:ca:6e:f1:72:6c,-1.2592871189117432,-0.11471471190452576,-164.46644592285156,0.01636924222111702,-0.060774065554142,-0.018457412719726562
118268149641.9017,d4:ca:6e:f1:72:6c,-1.2585477828979492,-0.11545258015394211,-164.45567321777344,0.002890276489779353,-0.09160902351140976,-0.020323753356933594
118268166312.2351,d4:ca:6e:f1:72:6c,-1.2604761123657227,-0.11578235030174255,-164.4436492919922,-0.010057959705591202,-0.057740382850170135,-0.004811286926269531
118268182982.56851,d4:ca:6e:f1:72:6c,-1.2609171867370605,-0.11458323895931244,-164.43104553222656,-0.00897370558232069,-0.024537285789847374,-0.0063934326171875
118268199460.099,d4:ca:6e:f1:72:6c,-1.2606743574142456,-0.11555436998605728,-164.41819763183594,-0.01778585836291313,0.036245569586753845,-0.009683609008789062
118268216130.4324,d4:ca:6e:f1:72:6c,-1.2610445022583008,-0.11541416496038437,-164.407470703125,-0.01799660734832287,0.06794371455907822,-0.0021352767944335938
118268232800.76581,d4:ca:6e:f1:72:6c,-1.2625502347946167,-0.11648476868867874,-164.39755249023438,-0.02759546786546707,0.07151322811841965,-0.014010429382324219
118268249471.09921,d4:ca:6e:f1:72:6c,-1.262427806854248,-0.1159777045249939,-164.3909912109375,-0.012090515345335007,0.03687174618244171,-0.015665054321289062
118268266141.43262,d4:ca:6e:f1:72:6c,-1.2618073225021362,-0.11636511981487274,-164.384521484375,-0.01524815522134304,-0.028004618361592293,-0.010740280151367188
118268282811.76602,d4:ca:6e:f1:72:6c,-1.261875033378601,-0.11665742844343185,-164.37667846679688,-0.015321903862059116,-0.07411755621433258,-0.0037565231323242188
118268299482.09943,d4:ca:6e:f1:72:6c,-1.2624225616455078,-0.11715055257081985,-164.3663330078125,-0.003640970215201378,-0.0780348852276802,-0.0018968582153320312
118268316152.43283,d4:ca:6e:f1:72:6c,-1.2626770734786987,-0.11638940125703812,-164.3535919189453,0.00048044632421806455,-0.0789373442530632,0.007678031921386719
118268332822.76624,d4:ca:6e:f1:72:6c,-1.2628498077392578,-0.1162291020154953,-164.33914184570312,-0.010745429433882236,-0.029992232099175453,-0.007874488830566406
118268349493.09964,d4:ca:6e:f1:72:6c,-1.2618200778961182,-0.1158095970749855,-164.32627868652344,-0.017149193212389946,0.021531078964471817,-0.013540267944335938
118268366163.43304,d4:ca:6e:f1:72:6c,-1.2618019580841064,-0.11531372368335724,-164.31398010253906,-0.03241979330778122,0.06921657174825668,-0.019216537475585938
118268382833.76645,d4:ca:6e:f1:72:6c,-1.2611281871795654,-0.11455502361059189,-164.3048553466797,-0.010525564663112164,0.07192602753639221,-0.011687278747558594
118268399504.09985,d4:ca:6e:f1:72:6c,-1.260718584060669,-0.11518090963363647,-164.29791259765625,-0.024332966655492783,0.027451833710074425,-0.028865814208984375
118268416174.43326,d4:ca:6e:f1:72:6c,-1.2598793506622314,-0.11611663550138474,-164.29116821289062,-0.017936887219548225,-0.023964742198586464,-0.006030082702636719
118268432844.76666,d4:ca:6e:f1:72:6c,-1.2604488134384155,-0.11548968404531479,-164.28414916992188,-0.009124182164669037,-0.05584004893898964,-0.017312049865722656
118268449515.10007,d4:ca:6e:f1:72:6c,-1.2604550123214722,-0.11564885824918747,-164.27484130859375,0.006302461959421635,-0.06796762347221375,-0.022414207458496094
118268466185.43347,d4:ca:6e:f1:72:6c,-1.2608426809310913,-0.11503130197525024,-164.26393127441406,-0.00425372552126646,-0.08207164704799652,-0.015120506286621094
118268482855.76688,d4:ca:6e:f1:72:6c,-1.2605692148208618,-0.11627083271741867,-164.2507781982422,-0.015188285149633884,-0.04746348783373833,-0.009810447692871094
118268499309.2,d4:ca:6e:f1:72:6c,-1.2603034973144531,-0.11497600376605988,-164.23841857910156,-0.019280266016721725,-0.015055171214044094,-0.012427330017089844
118268515979.5334,d4:ca:6e:f1:72:6c,-1.2594718933105469,-0.1139417514204979,-164.22645568847656,-0.0076125552877783775,0.04244779422879219,-0.014212608337402344
118268532649.8668,d4:ca:6e:f1:72:6c,-1.2591180801391602,-0.11422504484653473,-164.2158203125,-0.03685305267572403,0.05869666114449501,-0.0041713714599609375
118268549320.20021,d4:ca:6e:f1:72:6c,-1.2577836513519287,-0.11543234437704086,-164.20660400390625,-0.03486016392707825,0.05289926007390022,-0.009215354919433594
118268565990.53362,d4:ca:6e:f1:72:6c,-1.25753915309906,-0.11514782905578613,-164.1985626220703,-0.010881311260163784,0.010035834275186062,-0.018543243408203125
118268582660.86702,d4:ca:6e:f1:72:6c,-1.2574957609176636,-0.115528903901577,-164.1907501220703,-0.002573774429038167,-0.04073221981525421,-0.03513336181640625
118268599331.20042,d4:ca:6e:f1:72:6c,-1.2575656175613403,-0.11666327714920044,-164.18148803710938,-0.002962623257189989,-0.061278484761714935,-0.012865066528320312
118268616001.53383,d4:ca:6e:f1:72:6c,-1.2583410739898682,-0.11711999028921127,-164.16961669921875,0.00017860082152765244,-0.08694813400506973,-0.0031499862670898438
118268632671.86723,d4:ca:6e:f1:72:6c,-1.2592144012451172,-0.11658523231744766,-164.15655517578125,-0.011406504549086094,-0.054885294288396835,-0.0024023056030273438
118268649342.20064,d4:ca:6e:f1:72:6c,-1.2601418495178223,-0.11553975939750671,-164.1427764892578,-0.034577298909425735,-0.016588876023888588,-0.012988090515136719
118268666012.53404,d4:ca:6e:f1:72:6c,-1.2584387063980103,-0.11554676294326782,-164.12884521484375,-0.0298042893409729,0.027225254103541374,-0.023560523986816406
118268682682.86745,d4:ca:6e:f1:72:6c,-1.2583613395690918,-0.11593517661094666,-164.11795043945312,-0.019850468263030052,0.0627594068646431,-0.00655364990234375
118268699353.20085,d4:ca:6e:f1:72:6c,-1.25740647315979,-0.11583913117647171,-164.1087646484375,-0.019769957289099693,0.07435255497694016,0.007030487060546875
118268716023.53426,d4:ca:6e:f1:72:6c,-1.2573168277740479,-0.11685962975025177,-164.10052490234375,-0.010269992984831333,0.040081121027469635,-0.010783195495605469
118268732693.86766,d4:ca:6e:f1:72:6c,-1.2566252946853638,-0.11865448951721191,-164.0925750732422,-0.018669532611966133,-0.002655584132298827,-0.027959823608398438
118268749364.20107,d4:ca:6e:f1:72:6c,-1.255403757095337,-0.11929140239953995,-164.0850830078125,0.006335340440273285,-0.043737735599279404,-0.010653495788574219
118268766034.53447,d4:ca:6e:f1:72:6c,-1.2559860944747925,-0.11908033490180969,-164.07688903808594,-0.0009352628840133548,-0.05956277251243591,-0.023630142211914062
118268782704.86787,d4:ca:6e:f1:72:6c,-1.2561495304107666,-0.1188296303153038,-164.06619262695312,-0.01984872668981552,-0.05908887833356857,-0.007357597351074219
118268799375.20128,d4:ca:6e:f1:72:6c,-1.256722331047058,-0.11878487467765808,-164.05453491210938,-0.007928358390927315,-0.040206678211688995,-0.009299278259277344
118268816045.53468,d4:ca:6e:f1:72:6c,-1.2575238943099976,-0.11760228127241135,-164.04209899902344,-0.0062679098919034,-0.029654385522007942,-0.0004024505615234375
118268832715.86809,d4:ca:6e:f1:72:6c,-1.2558197975158691,-0.1176418885588646,-164.0297088623047,-0.0037024468183517456,0.009403610602021217,-0.011881828308105469
118268849386.20149,d4:ca:6e:f1:72:6c,-1.2551970481872559,-0.11756212264299393,-164.01707458496094,-0.026130324229598045,0.037672869861125946,0.00078582763671875
118268866056.5349,d4:ca:6e:f1:72:6c,-1.2549482583999634,-0.11761902272701263,-164.00709533691406,-0.02119203470647335,0.0312233567237854,-0.007171630859375
118268882726.8683,d4:ca:6e:f1:72:6c,-1.2555893659591675,-0.11858218163251877,-163.9968719482422,-0.016644587740302086,0.014910606667399406,-0.013144493103027344
118268899397.2017,d4:ca:6e:f1:72:6c,-1.2568496465682983,-0.11859069764614105,-163.988037109375,0.00012751763279084116,-0.004285111092031002,-0.009125709533691406
118268916067.53511,d4:ca:6e:f1:72:6c,-1.2576165199279785,-0.11849208176136017,-163.9778289794922,-0.0017927398439496756,-0.020741533488035202,-0.023031234741210938
118268932737.86852,d4:ca:6e:f1:72:6c,-1.258355975151062,-0.11814141273498535,-163.9674072265625,-0.01680184341967106,-0.03169704228639603,-0.027618408203125
118268949408.20192,d4:ca:6e:f1:72:6c,-1.2593982219696045,-0.1175936907529831,-163.9552459716797,0.004173905588686466,-0.03510008752346039,0.0051364898681640625
118268966078.53532,d4:ca:6e:f1:72:6c,-1.26085364818573,-0.11753812432289124,-163.9429473876953,-0.022443536669015884,-0.028880247846245766,-0.0057163238525390625
118268982748.86873,d4:ca:6e:f1:72:6c,-1.260920763015747,-0.11766503006219864,-163.93031311035156,-0.022973882034420967,0.00030252127908170223,-0.016204833984375
118268999419.20213,d4:ca:6e:f1:72:6c,-1.2597036361694336,-0.11701397597789764,-163.91879272460938,-0.0159361120313406,0.02190651185810566,-0.023797035217285156
118269016089.53554,d4:ca:6e:f1:72:6c,-1.2596869468688965,-0.11808732897043228,-163.90887451171875,-0.01938953995704651,0.024552321061491966,-0.02810955047607422
118269032759.86894,d4:ca:6e:f1:72:6c,-1.2580944299697876,-0.1187925711274147,-163.89817810058594,-0.008312703110277653,0.0070567955262959,-0.0069904327392578125
118269049430.20235,d4:ca:6e:f1:72:6c,-1.2582392692565918,-0.12001968175172806,-163.88954162597656,-0.008360516279935837,-0.033374886959791183,-0.011565208435058594
118269066100.53575,d4:ca:6e:f1:72:6c,-1.2586623430252075,-0.12106052786111832,-163.88027954101562,-0.020089173689484596,-0.026934675872325897,-0.01678943634033203
118269082770.86916,d4:ca:6e:f1:72:6c,-1.258738398551941,-0.12068890780210495,-163.87046813964844,-0.019070344045758247,-0.018035409972071648,-0.006766319274902344
118269099441.20256,d4:ca:6e:f1:72:6c,-1.259324312210083,-0.11939660459756851,-163.86021423339844,-0.019701015204191208,-0.007010257802903652,-0.013216018676757812
118269116111.53596,d4:ca:6e:f1:72:6c,-1.2590134143829346,-0.12016908079385757,-163.84996032714844,-0.020381273701786995,-0.016745902597904205,-0.004179954528808594
118269132781.86937,d4:ca:6e:f1:72:6c,-1.2583030462265015,-0.12102662026882172,-163.8386688232422,-0.025203648954629898,-0.011904812417924404,-0.004547119140625
118269149452.20277,d4:ca:6e:f1:72:6c,-1.2582170963287354,-0.12085791677236557,-163.82859802246094,-0.022891614586114883,0.000892077514436096,-0.006783485412597656
118269166122.53618,d4:ca:6e:f1:72:6c,-1.2581596374511719,-0.12021614611148834,-163.81863403320312,-0.02005576714873314,0.03565759211778641,-0.014408111572265625
118269182792.86958,d4:ca:6e:f1:72:6c,-1.2567471265792847,-0.1207481175661087,-163.81150817871094,-0.010877052322030067,0.04183949530124664,-0.010587692260742188
118269199463.20299,d4:ca:6e:f1:72:6c,-1.2568527460098267,-0.12097218632698059,-163.80223083496094,-0.008964837528765202,-0.0034484306816011667,-0.003841400146484375
118269216133.53639,d4:ca:6e:f1:72:6c,-1.2561193704605103,-0.121901735663414,-163.79391479492188,-0.027970636263489723,-0.027576645836234093,0.000759124755859375
118269232803.8698,d4:ca:6e:f1:72:6c,-1.2567224502563477,-0.12216194719076157,-163.7837371826172,-0.005569986533373594,-0.03779355809092522,-0.014088630676269531
118269249474.2032,d4:ca:6e:f1:72:6c,-1.2554160356521606,-0.12201276421546936,-163.77395629882812,0.0048027606680989265,-0.029501523822546005,-0.0215606689453125
118269266144.5366,d4:ca:6e:f1:72:6c,-1.2556077241897583,-0.1216248869895935,-163.763671875,-0.0027646857779473066,-0.02040902152657509,-0.0061359405517578125
118269282814.87001,d4:ca:6e:f1:72:6c,-1.2545949220657349,-0.12104617804288864,-163.7518310546875,-0.023417338728904724,-0.013995248824357986,-0.005183219909667969
118269299485.20341,d4:ca:6e:f1:72:6c,-1.2527508735656738,-0.1215488612651825,-163.74002075195312,-0.00624263659119606,0.012162755243480206,-0.00772857666015625
118269316155.53682,d4:ca:6e:f1:72:6c,-1.2529445886611938,-0.12262929975986481,-163.7301483154297,-0.005862858146429062,0.029099995270371437,-0.014737129211425781
118269332825.87022,d4:ca:6e:f1:72:6c,-1.2539429664611816,-0.12296246737241745,-163.72010803222656,-0.01582406833767891,0.01854262873530388,-0.008356094360351562
118269349496.20363,d4:ca:6e:f1:72:6c,-1.2542357444763184,-0.1218624860048294,-163.70999145507812,-0.017915917560458183,-0.01482174638658762,-0.021223068237304688
118269366166.53703,d4:ca:6e:f1:72:6c,-1.2531919479370117,-0.12232550233602524,-163.7000732421875,-0.02032715268433094,-0.025983167812228203,-0.0052165985107421875
118269382836.87044,d4:ca:6e:f1:72:6c,-1.2522388696670532,-0.12178613245487213,-163.69024658203125,-0.00895668100565672,-0.01556815393269062,-0.016982078552246094
118269399507.20384,d4:ca:6e:f1:72:6c,-1.252601981163025,-0.12135323882102966,-163.67938232421875,-0.010012094862759113,-0.014676923863589764,-0.0070037841796875
118269416177.53725,d4:ca:6e:f1:72:6c,-1.2524751424789429,-0.12135893851518631,-163.66891479492188,-0.016990093514323235,-0.01638423651456833,-0.004738807678222656
118269432847.87065,d4:ca:6e:f1:72:6c,-1.253997564315796,-0.12121014297008514,-163.65834045410156,-0.023881517350673676,-0.00850464403629303,-0.03772449493408203
118269449518.20406,d4:ca:6e:f1:72:6c,-1.2557752132415771,-0.12137340754270554,-163.64825439453125,-0.01384288351982832,-0.011948350816965103,-0.0043182373046875
118269466188.53746,d4:ca:6e:f1:72:6c,-1.2551013231277466,-0.12079152464866638,-163.6372833251953,-0.020384004339575768,-0.001124594477005303,-0.004834175109863281
118269482858.87086,d4:ca:6e:f1:72:6c,-1.2545454502105713,-0.12060494720935822,-163.6271209716797,-0.015032468363642693,0.006902495864778757,-0.03464698791503906
118269499529.20427,d4:ca:6e:f1:72:6c,-1.2537189722061157,-0.12097815424203873,-163.61709594726562,-0.033606842160224915,0.0012582162162289023,-0.02070903778076172
118269516199.53767,d4:ca:6e:f1:72:6c,-1.2541348934173584,-0.12295711785554886,-163.60659790039062,-0.01915515586733818,0.003414770355448127,-0.017792701721191406
118269532869.87108,d4:ca:6e:f1:72:6c,-1.254084825515747,-0.12350431084632874,-163.59713745117188,-0.008811443112790585,-0.014334474690258503,-0.00136566162109375
118269549499.499,d4:ca:6e:f1:72:6c,-1.2545385360717773,-0.12428935617208481,-163.5872039794922,-0.004391479305922985,-0.02687951922416687,-0.004132270812988281
118269566169.8324,d4:ca:6e:f1:72:6c,-1.2558355331420898,-0.12409637123346329,-163.57701110839844,-0.004543335642665625,-0.023707110434770584,-0.023736000061035156
118269582840.1658,d4:ca:6e:f1:72:6c,-1.2561144828796387,-0.12340908497571945,-163.56613159179688,-0.02059696987271309,-0.011197935789823532,-0.0050640106201171875
118269599510.4992,d4:ca:6e:f1:72:6c,-1.2567152976989746,-0.12368416041135788,-163.5543212890625,-0.02057328075170517,0.0012157219462096691,-0.01670074462890625
118269616180.83261,d4:ca:6e:f1:72:6c,-1.2570847272872925,-0.12418528646230698,-163.5439453125,-0.019455598667263985,0.009541481733322144,-0.013234138488769531
118269632851.16602,d4:ca:6e:f1:72:6c,-1.2577415704727173,-0.12410497665405273,-163.53448486328125,-0.016801200807094574,0.018320800736546516,-0.008196830749511719
118269649521.49942,d4:ca:6e:f1:72:6c,-1.2571941614151,-0.12490826100111008,-163.5259246826172,-0.02075306512415409,-0.0015607259701937437,0.0006227493286132812
118269666191.83282,d4:ca:6e:f1:72:6c,-1.2570399045944214,-0.12471634894609451,-163.51580810546875,-0.007528969086706638,0.006896244361996651,-0.0037174224853515625
118269682862.16623,d4:ca:6e:f1:72:6c,-1.2574074268341064,-0.12512053549289703,-163.50660705566406,-0.020655158907175064,-0.0012295779306441545,-0.006427764892578125
118269699532.49963,d4:ca:6e:f1:72:6c,-1.256173849105835,-0.12559230625629425,-163.49826049804688,-0.009113086387515068,-0.02662496827542782,-0.010517120361328125
118269716202.83304,d4:ca:6e:f1:72:6c,-1.2550643682479858,-0.12588974833488464,-163.48939514160156,-0.014859074726700783,-0.0427214689552784,-0.00011348724365234375
118269732873.16644,d4:ca:6e:f1:72:6c,-1.2554864883422852,-0.12596707046031952,-163.47882080078125,-0.02405034750699997,-0.048980727791786194,-0.0008373260498046875
118269749543.49985,d4:ca:6e:f1:72:6c,-1.2552541494369507,-0.12640516459941864,-163.4673309326172,0.00098412053193897,-0.025950925424695015,0.0070476531982421875
118269766213.83325,d4:ca:6e:f1:72:6c,-1.2537260055541992,-0.12597259879112244,-163.45542907714844,-0.004783445969223976,0.0073962584137916565,-0.020567893981933594
118269782884.16666,d4:ca:6e:f1:72:6c,-1.253324270248413,-0.1264619380235672,-163.44468688964844,-0.02107362076640129,0.015303774736821651,-0.010417938232421875
118269799554.50006,d4:ca:6e:f1:72:6c,-1.2536085844039917,-0.1269983947277069,-163.43548583984375,-0.011464354582130909,0.026718806475400925,-0.013887405395507812
118269816224.83347,d4:ca:6e:f1:72:6c,-1.2523859739303589,-0.1280401051044464,-163.4256591796875,-0.003987392410635948,-0.0013986253179609776,-0.01692485809326172
118269832895.16687,d4:ca:6e:f1:72:6c,-1.2519257068634033,-0.12840990722179413,-163.41522216796875,-0.015214528888463974,-0.01721321977674961,-0.009305953979492188
118269849565.50027,d4:ca:6e:f1:72:6c,-1.2506928443908691,-0.128902867436409,-163.4054718017578,-0.006852257531136274,-0.033739931881427765,-0.011562347412109375
118269866235.83368,d4:ca:6e:f1:72:6c,-1.2514277696609497,-0.1293947994709015,-163.3942108154297,-0.02075611986219883,-0.03152202069759369,-0.008109092712402344
118269882906.16708,d4:ca:6e:f1:72:6c,-1.2518460750579834,-0.1295488178730011,-163.38302612304688,-0.022318650037050247,-0.016110757365822792,-0.03190135955810547
118269899576.50049,d4:ca:6e:f1:72:6c,-1.2499464750289917,-0.13041073083877563,-163.37261962890625,-0.007420162204653025,0.0050255791284143925,-0.007615089416503906
118269916246.8339,d4:ca:6e:f1:72:6c,-1.2496267557144165,-0.1311953216791153,-163.36293029785156,-0.024396948516368866,0.010911760851740837,-0.02581310272216797
118269932917.1673,d4:ca:6e:f1:72:6c,-1.248255729675293,-0.1313581019639969,-163.35357666015625,-0.014299541711807251,0.02147659659385681,-0.03443145751953125
118269949587.5007,d4:ca:6e:f1:72:6c,-1.2495896816253662,-0.13231085240840912,-163.34417724609375,-0.021349186077713966,0.004995281342417002,-0.018009185791015625
118269966257.8341,d4:ca:6e:f1:72:6c,-1.2494267225265503,-0.13199877738952637,-163.33453369140625,-0.013427470810711384,-0.015462537296116352,0.0028715133666992188
118269982928.16751,d4:ca:6e:f1:72:6c,-1.2495899200439453,-0.1332351118326187,-163.32501220703125,-0.0018502158345654607,-0.027359502390027046,-0.011513710021972656
118269999598.50092,d4:ca:6e:f1:72:6c,-1.2490631341934204,-0.1335684061050415,-163.31544494628906,0.000775471213273704,-0.03846853971481323,-0.015217781066894531
118270016268.83432,d4:ca:6e:f1:72:6c,-1.2486820220947266,-0.13281753659248352,-163.3042449951172,-0.005411705933511257,-0.04097616299986839,-0.003284454345703125
118270032939.16772,d4:ca:6e:f1:72:6c,-1.2485679388046265,-0.1315966099500656,-163.29251098632812,-0.017926225438714027,-0.012200701050460339,-0.011332511901855469
118270049609.50113,d4:ca:6e:f1:72:6c,-1.2481451034545898,-0.13233524560928345,-163.2809600830078,0.005233658943325281,0.010006490163505077,-0.02707672119140625
118270066279.83453,d4:ca:6e:f1:72:6c,-1.2483588457107544,-0.13365493714809418,-163.27005004882812,-0.003751504234969616,0.006975856143981218,-0.0021953582763671875
118270082950.16794,d4:ca:6e:f1:72:6c,-1.2475963830947876,-0.13360854983329773,-163.2596435546875,-0.010281805880367756,0.005970842204988003,-0.0027942657470703125
118270099620.50134,d4:ca:6e:f1:72:6c,-1.2466381788253784,-0.13446743786334991,-163.24803161621094,-0.004944763146340847,0.005316817667335272,-0.0179290771484375
118270116290.83475,d4:ca:6e:f1:72:6c,-1.2468796968460083,-0.13387048244476318,-163.2374267578125,-0.021861977875232697,-0.0021246823016554117,-0.01977825164794922
118270132961.16815,d4:ca:6e:f1:72:6c,-1.2467138767242432,-0.1336282342672348,-163.22715759277344,-0.006526799872517586,-0.002990009728819132,-0.009227752685546875
118270149631.50156,d4:ca:6e:f1:72:6c,-1.2468353509902954,-0.1337832808494568,-163.21688842773438,-0.004313426557928324,-0.011498802341520786,-0.003864288330078125
118270166301.83496,d4:ca:6e:f1:72:6c,-1.2477558851242065,-0.13367514312267303,-163.20660400390625,-0.014381199143826962,-0.015198683366179466,-0.002132415771484375
118270182972.16837,d4:ca:6e:f1:72:6c,-1.2466403245925903,-0.13407504558563232,-163.19589233398438,-0.006756223738193512,-0.023226121440529823,-0.014071464538574219
118270199642.50177,d4:ca:6e:f1:72:6c,-1.2454251050949097,-0.13403813540935516,-163.18511962890625,-0.014425578527152538,0.0021298518404364586,-0.014566421508789062
118270216312.83517,d4:ca:6e:f1:72:6c,-1.2461251020431519,-0.134775772690773,-163.1749725341797,-0.011683652177453041,0.00616238871589303,-0.012603759765625
118270232983.16858,d4:ca:6e:f1:72:6c,-1.2465466260910034,-0.13447783887386322,-163.1653289794922,-0.014758922159671783,0.012511609122157097,-0.02030181884765625
118270249653.50198,d4:ca:6e:f1:72:6c,-1.245998740196228,-0.13442203402519226,-163.1556854248047,-0.02510811761021614,0.006189981009811163,-0.007936477661132812
118270266323.83539,d4:ca:6e:f1:72:6c,-1.24619722366333,-0.1352483481168747,-163.14524841308594,-0.01959487423300743,-0.019114021211862564,-0.0026330947875976562
118270282994.1688,d4:ca:6e:f1:72:6c,-1.2454748153686523,-0.13529878854751587,-163.135009765625,-0.01733018271625042,-0.018925663083791733,-0.005362510681152344
118270299550.6,d4:ca:6e:f1:72:6c,-1.2453076839447021,-0.1360522359609604,-163.1256866455078,-0.006524854805320501,-0.012664933688938618,-0.01709747314453125
118270316220.93341,d4:ca:6e:f1:72:6c,-1.243077039718628,-0.135573610663414,-163.1148223876953,-0.024703649803996086,-0.01066043321043253,-0.020326614379882812
118270332891.26682,d4:ca:6e:f1:72:6c,-1.2434654235839844,-0.135667622089386,-163.10281372070312,-0.012314777821302414,-0.0031260033138096333,-0.014984130859375
118270349561.60022,d4:ca:6e:f1:72:6c,-1.2423166036605835,-0.1354859471321106,-163.09217834472656,-0.009775089100003242,0.0025056449230760336,-0.007966995239257812
118270366231.93362,d4:ca:6e:f1:72:6c,-1.2424249649047852,-0.13580934703350067,-163.08058166503906,-0.015447767451405525,-0.008260554634034634,-0.032364845275878906
118270382902.26703,d4:ca:6e:f1:72:6c,-1.243012547492981,-0.13625018298625946,-163.07037353515625,-0.024359848350286484,0.0006136862793937325,-0.02422618865966797
