sep=,
Measurement Mode:,Complete (Euler)
StartTime:,Sat, 12 Mar 2022 16:56:19 GMT
© Xsens Technologies B. V. 2005-2022

Timestamp,Address,Euler_x,Euler_y,Euler_z,FreeAcc_x,FreeAcc_y,FreeAcc_z
119958051129.599,d4:ca:6e:f1:7a:a0,-3.3992371559143066,-17.448965072631836,129.97039794921875,0.023924492299556732,-0.019493961706757545,-0.011842727661132812
119958055724.5,d4:ca:6e:f1:7a:a0,-3.4146718978881836,-17.416284561157227,129.9628143310547,0.01729571260511875,-0.015773029997944832,-0.015094757080078125
119958072394.8334,d4:ca:6e:f1:7a:a0,-3.4276599884033203,-17.387285232543945,129.95364379882812,-0.0066735101863741875,-0.011336074210703373,-0.018651962280273438
119958083436.199,d4:ca:6e:f1:7a:a0,-3.427893877029419,-17.374591827392578,129.9416046142578,-0.00766822649165988,0.01840171031653881,-0.0063381195068359375
119958100106.53241,d4:ca:6e:f1:7a:a0,-3.434176445007324,-17.37912368774414,129.930908203125,-0.008234160952270031,0.014014877378940582,-0.018858909606933594
119958116776.86581,d4:ca:6e:f1:7a:a0,-3.440289258956909,-17.387693405151367,129.9217071533203,-0.0025897049345076084,0.0038955514319241047,-0.020206451416015625
119958133447.19922,d4:ca:6e:f1:7a:a0,-3.446503162384033,-17.39611053466797,129.9125213623047,-0.0008698006859049201,0.013439889997243881,-0.016469955444335938
119958150117.53262,d4:ca:6e:f1:7a:a0,-3.454768180847168,-17.405115127563477,129.9029998779297,-0.009517153725028038,-0.005747468210756779,-0.012389183044433594
119958166787.86603,d4:ca:6e:f1:7a:a0,-3.460620164871216,-17.411319732666016,129.89328002929688,-0.007995366118848324,-0.006362240295857191,-0.02060413360595703
119958183458.19943,d4:ca:6e:f1:7a:a0,-3.4635636806488037,-17.417985916137695,129.883056640625,0.0038749603554606438,-0.007418115623295307,-0.010550498962402344
119958200128.53284,d4:ca:6e:f1:7a:a0,-3.4673283100128174,-17.423744201660156,129.872314453125,-0.00009787073213374242,-0.012262423522770405,-0.023972511291503906
119958216798.86624,d4:ca:6e:f1:7a:a0,-3.4714932441711426,-17.427555084228516,129.8631591796875,0.008972620591521263,-0.014020408503711224,-0.01836681365966797
119958232989,d4:ca:6e:f1:7a:a0,-3.4759767055511475,-17.430522918701172,129.85328674316406,0.001520307152532041,-0.00508637260645628,-0.014725685119628906
119958249659.3334,d4:ca:6e:f1:7a:a0,-3.4806065559387207,-17.433382034301758,129.8447723388672,0.0009783720597624779,-0.010721301659941673,-0.011057853698730469
119958266329.66681,d4:ca:6e:f1:7a:a0,-3.485555410385132,-17.43578338623047,129.83663940429688,0.007977820001542568,-0.01682169735431671,-0.01729106903076172
119958283000.00021,d4:ca:6e:f1:7a:a0,-3.4899890422821045,-17.439809799194336,129.8291473388672,0.008527996949851513,-0.017488492652773857,-0.018604278564453125
119958299670.33362,d4:ca:6e:f1:7a:a0,-3.4953548908233643,-17.443927764892578,129.82351684570312,0.00587892159819603,-0.020264914259314537,-0.008449554443359375
119958316340.66702,d4:ca:6e:f1:7a:a0,-3.49959659576416,-17.446041107177734,129.7843017578125,-0.002708110958337784,-0.03203415498137474,-0.0132293701171875
119958333011.00043,d4:ca:6e:f1:7a:a0,-3.503330945968628,-17.447586059570312,129.8133544921875,0.0021632981952279806,-0.042140573263168335,-0.009592056274414062
119958349681.33383,d4:ca:6e:f1:7a:a0,-3.5064752101898193,-17.448970794677734,129.8096466064453,0.00023044185945764184,-0.0343964658677578,-0.013962745666503906
119958366351.66724,d4:ca:6e:f1:7a:a0,-3.5104339122772217,-17.45073699951172,129.80239868164062,0.0001655951637076214,-0.027818087488412857,-0.012024879455566406
119958382764.1,d4:ca:6e:f1:7a:a0,-3.5154757499694824,-17.452789306640625,129.80032348632812,0.01228161808103323,-0.027154533192515373,-0.004582405090332031
119958399434.43341,d4:ca:6e:f1:7a:a0,-3.5206851959228516,-17.453664779663086,129.8273468017578,-0.004754902794957161,-0.03674910590052605,-0.013497352600097656
119958416104.76682,d4:ca:6e:f1:7a:a0,-3.526055335998535,-17.454317092895508,129.77047729492188,0.004109732806682587,-0.02390269935131073,-0.016263961791992188
119958432775.10022,d4:ca:6e:f1:7a:a0,-3.5286879539489746,-17.45532989501953,129.7629852294922,-0.0017941105179488659,-0.0315745584666729,-0.01143646240234375
119958449445.43362,d4:ca:6e:f1:7a:a0,-3.5324981212615967,-17.45760726928711,129.76885986328125,0.003262171521782875,-0.04631959646940231,-0.010885238647460938
119958466115.76703,d4:ca:6e:f1:7a:a0,-3.5357043743133545,-17.460176467895508,129.7623748779297,0.0067811873741447926,-0.06043516471982002,-0.012625694274902344
119958482786.10043,d4:ca:6e:f1:7a:a0,-3.5406253337860107,-17.462833404541016,129.6933135986328,-0.003812572220340371,-0.03827296197414398,-0.0035791397094726562
119958499456.43384,d4:ca:6e:f1:7a:a0,-3.544050455093384,-17.463451385498047,129.67750549316406,-0.007640426978468895,-0.03155812993645668,-0.008223533630371094
119958516126.76724,d4:ca:6e:f1:7a:a0,-3.547147274017334,-17.465322494506836,129.66650390625,-0.0020030951127409935,-0.023635825142264366,-0.0059185028076171875
119958532797.10065,d4:ca:6e:f1:7a:a0,-3.550901412963867,-17.465845108032227,129.63442993164062,-0.003148431424051523,-0.025080109015107155,-0.019062042236328125
119958549467.43405,d4:ca:6e:f1:7a:a0,-3.5559608936309814,-17.465600967407227,129.61891174316406,0.007102878298610449,-0.03625240549445152,-0.0033359527587890625
119958566137.76746,d4:ca:6e:f1:7a:a0,-3.558016300201416,-17.46721076965332,129.60296630859375,-0.00677372794598341,-0.026008302345871925,-0.010722160339355469
119958582808.10086,d4:ca:6e:f1:7a:a0,-3.5607750415802,-17.469329833984375,129.5936279296875,-0.01260305754840374,-0.015337961725890636,-0.025061607360839844
119958599478.43427,d4:ca:6e:f1:7a:a0,-3.5639710426330566,-17.47157096862793,129.56358337402344,-0.026835300028324127,-0.0029783102218061686,0.006977081298828125
119958616148.76767,d4:ca:6e:f1:7a:a0,-3.5667836666107178,-17.47516632080078,129.5548095703125,-0.006615284830331802,-0.015353999100625515,-0.008405685424804688
119958632819.10107,d4:ca:6e:f1:7a:a0,-3.569169044494629,-17.477346420288086,129.55035400390625,-0.008764082565903664,-0.014093050733208656,-0.010164260864257812
119958649489.43448,d4:ca:6e:f1:7a:a0,-3.5744926929473877,-17.48056983947754,129.53610229492188,-0.012743032537400723,-0.012596016749739647,0.005091667175292969
119958666159.76788,d4:ca:6e:f1:7a:a0,-3.579996109008789,-17.482812881469727,129.53131103515625,-0.013543181121349335,-0.02498668059706688,-0.02611827850341797
119958682830.10129,d4:ca:6e:f1:7a:a0,-3.585012674331665,-17.486175537109375,129.526611328125,-0.003996020648628473,-0.04139476642012596,-0.011249542236328125
119958699500.4347,d4:ca:6e:f1:7a:a0,-3.5883240699768066,-17.488649368286133,129.5063018798828,0.009074038825929165,-0.044898610562086105,-0.01757049560546875
119958716170.7681,d4:ca:6e:f1:7a:a0,-3.589988946914673,-17.490434646606445,129.4785919189453,0.006568458862602711,-0.062313511967659,-0.015252113342285156
119958732841.1015,d4:ca:6e:f1:7a:a0,-3.5938756465911865,-17.4940128326416,129.46426391601562,-0.010988874360918999,-0.054061468690633774,-0.0053310394287109375
119958749511.4349,d4:ca:6e:f1:7a:a0,-3.597452163696289,-17.497940063476562,129.4608154296875,-0.02184014953672886,-0.0365363210439682,-0.003985404968261719
119958766181.76831,d4:ca:6e:f1:7a:a0,-3.6012160778045654,-17.500900268554688,129.44351196289062,-0.008544285781681538,-0.03496363013982773,-0.0092315673828125
119958782852.10172,d4:ca:6e:f1:7a:a0,-3.6041388511657715,-17.50340461730957,129.44439697265625,-0.010598928667604923,-0.031049693003296852,-0.01920318603515625
119958799522.43512,d4:ca:6e:f1:7a:a0,-3.6066861152648926,-17.505895614624023,129.4203338623047,-0.0082890335470438,-0.04077809303998947,-0.018096923828125
119958816192.76852,d4:ca:6e:f1:7a:a0,-3.6075940132141113,-17.507997512817383,129.41189575195312,-0.00951092317700386,-0.043571002781391144,-0.010313034057617188
119958832863.10193,d4:ca:6e:f1:7a:a0,-3.6098971366882324,-17.510665893554688,129.3995819091797,-0.01193925179541111,-0.04085621237754822,-0.0028676986694335938
119958849533.43533,d4:ca:6e:f1:7a:a0,-3.6123197078704834,-17.513734817504883,129.37867736816406,-0.019435737282037735,-0.024673987179994583,-0.015264511108398438
119958866203.76874,d4:ca:6e:f1:7a:a0,-3.6156694889068604,-17.517324447631836,129.3689422607422,-0.02117961272597313,-0.02510151080787182,-0.0040378570556640625
119958882874.10214,d4:ca:6e:f1:7a:a0,-3.619466781616211,-17.520612716674805,129.36721801757812,-0.015033705160021782,-0.02987859770655632,-0.0142059326171875
119958899544.43555,d4:ca:6e:f1:7a:a0,-3.6233444213867188,-17.5240535736084,129.3473358154297,-0.013761972077190876,-0.030671341344714165,-0.009293556213378906
119958916214.76895,d4:ca:6e:f1:7a:a0,-3.6265435218811035,-17.527019500732422,129.3382568359375,-0.04306818172335625,-0.0192406103014946,-0.02685832977294922
119958932885.10236,d4:ca:6e:f1:7a:a0,-3.6303842067718506,-17.529447555541992,129.33309936523438,-0.04668238386511803,-0.014210953377187252,0.009014129638671875
119958949555.43576,d4:ca:6e:f1:7a:a0,-3.633255958557129,-17.53249168395996,129.3436279296875,-0.020562801510095596,-0.011887759901583195,-0.015676498413085938
119958966225.76917,d4:ca:6e:f1:7a:a0,-3.637693405151367,-17.535337448120117,129.34767150878906,-0.012724759988486767,0.011993872933089733,0.007800102233886719
119958982896.10257,d4:ca:6e:f1:7a:a0,-3.641671657562256,-17.538087844848633,129.3493194580078,0.021314168348908424,-0.006698851007968187,-0.00037479400634765625
119958999566.43597,d4:ca:6e:f1:7a:a0,-3.64447283744812,-17.53963851928711,129.34422302246094,0.022740598767995834,-0.05870969966053963,-0.03160858154296875
119959016236.76938,d4:ca:6e:f1:7a:a0,-3.6479063034057617,-17.542760848999023,129.34066772460938,0.033847376704216,-0.11105738580226898,-0.008757591247558594
119959032907.10278,d4:ca:6e:f1:7a:a0,-3.651455879211426,-17.54582977294922,129.33326721191406,0.025462176650762558,-0.14657677710056305,-0.01520538330078125
119959049577.43619,d4:ca:6e:f1:7a:a0,-3.6530284881591797,-17.54847526550293,129.32867431640625,-0.00862083863466978,-0.13663721084594727,-0.027403831481933594
119959066247.76959,d4:ca:6e:f1:7a:a0,-3.656655788421631,-17.55157470703125,129.31761169433594,-0.00164589355699718,-0.11465303599834442,-0.012203216552734375
119959082918.103,d4:ca:6e:f1:7a:a0,-3.6601064205169678,-17.554149627685547,129.30955505371094,0.0018907519988715649,-0.09591784328222275,-0.02388763427734375
119959099588.4364,d4:ca:6e:f1:7a:a0,-3.6655161380767822,-17.557470321655273,129.29698181152344,-0.00778945442289114,-0.07088205218315125,-0.006084442138671875
119959116258.7698,d4:ca:6e:f1:7a:a0,-3.668647050857544,-17.55967140197754,129.27783203125,0.0004375824937596917,-0.0722188800573349,-0.014704704284667969
119959132611,d4:ca:6e:f1:7a:a0,-3.673201084136963,-17.5615234375,129.26400756835938,0.007406073622405529,-0.07596512138843536,-0.009552955627441406
119959149281.3334,d4:ca:6e:f1:7a:a0,-3.675200939178467,-17.565414428710938,129.24334716796875,-0.011540700681507587,-0.04825141653418541,-0.011992454528808594
119959165951.66681,d4:ca:6e:f1:7a:a0,-3.6793086528778076,-17.567848205566406,129.22988891601562,-0.027432555332779884,-0.02057732827961445,-0.009679794311523438
119959182622.00021,d4:ca:6e:f1:7a:a0,-3.682624101638794,-17.57083511352539,129.22279357910156,-0.03456306457519531,0.0029047743882983923,-0.024555206298828125
119959199292.33362,d4:ca:6e:f1:7a:a0,-3.6862924098968506,-17.57401466369629,129.2108917236328,-0.011251670308411121,0.007000146433711052,-0.008996963500976562
119959215962.66702,d4:ca:6e:f1:7a:a0,-3.689807415008545,-17.57724952697754,129.19781494140625,-0.01267801783978939,-0.021218309178948402,-0.008467674255371094
119959232633.00043,d4:ca:6e:f1:7a:a0,-3.6939375400543213,-17.579017639160156,129.18824768066406,-0.005495065823197365,-0.050973471254110336,-0.012407302856445312
119959249303.33383,d4:ca:6e:f1:7a:a0,-3.6975865364074707,-17.582077026367188,129.17919921875,0.0058266473934054375,-0.09282436966896057,-0.008532524108886719
119959265973.66724,d4:ca:6e:f1:7a:a0,-3.699831485748291,-17.583826065063477,129.1711883544922,-0.007589829619973898,-0.07898668199777603,-0.01943683624267578
119959282644.00064,d4:ca:6e:f1:7a:a0,-3.702465534210205,-17.585220336914062,129.16049194335938,-0.006260095164179802,-0.06656808406114578,-0.022019386291503906
119959299314.33405,d4:ca:6e:f1:7a:a0,-3.705350399017334,-17.587539672851562,129.14852905273438,-0.002409246051684022,-0.07359667122364044,-0.011538505554199219
119959315984.66745,d4:ca:6e:f1:7a:a0,-3.708355188369751,-17.58855438232422,129.1385040283203,-0.024539543315768242,-0.07571842521429062,0.009510993957519531
119959332655.00085,d4:ca:6e:f1:7a:a0,-3.710418701171875,-17.589847564697266,129.1304168701172,-0.0062169567681849,-0.08525164425373077,-0.008925437927246094
119959349325.33426,d4:ca:6e:f1:7a:a0,-3.712083101272583,-17.59197235107422,129.11865234375,-0.021621469408273697,-0.05327833443880081,-0.021581649780273438
119959365995.66766,d4:ca:6e:f1:7a:a0,-3.712690591812134,-17.593765258789062,129.1071014404297,-0.002711826702579856,-0.042898114770650864,-0.024550437927246094
119959382666.00107,d4:ca:6e:f1:7a:a0,-3.7138521671295166,-17.594486236572266,129.09727478027344,0.0009182470967061818,-0.036288224160671234,-0.005105018615722656
119959399336.33447,d4:ca:6e:f1:7a:a0,-3.7170772552490234,-17.59402847290039,129.09043884277344,-0.01987672783434391,-0.02711055614054203,-0.008900642395019531
119959416006.66788,d4:ca:6e:f1:7a:a0,-3.7182462215423584,-17.59442710876465,129.0819091796875,-0.021951235830783844,-0.05568428710103035,-0.041828155517578125
119959432335.6,d4:ca:6e:f1:7a:a0,-3.7190423011779785,-17.5966739654541,129.07278442382812,-0.01621178537607193,-0.06915535777807236,-0.013617515563964844
119959449005.93341,d4:ca:6e:f1:7a:a0,-3.721284866333008,-17.596948623657227,129.0635986328125,-0.009810877963900566,-0.07933133840560913,-0.018909454345703125
119959465676.26682,d4:ca:6e:f1:7a:a0,-3.725302219390869,-17.598581314086914,129.05397033691406,-0.004491604398936033,-0.09965772181749344,-0.01760101318359375
119959482346.60022,d4:ca:6e:f1:7a:a0,-3.7260799407958984,-17.59977149963379,129.04266357421875,-0.012222358956933022,-0.08185402303934097,-0.010741233825683594
119959499016.93362,d4:ca:6e:f1:7a:a0,-3.7262072563171387,-17.599361419677734,129.03407287597656,0.0000460157280031126,-0.07334057986736298,-0.009521484375
119959515687.26703,d4:ca:6e:f1:7a:a0,-3.72658109664917,-17.600383758544922,129.02333068847656,-0.015758557245135307,-0.06567380577325821,-0.029981613159179688
119959532357.60043,d4:ca:6e:f1:7a:a0,-3.7307004928588867,-17.600404739379883,129.01414489746094,-0.0052301473915576935,-0.08096472173929214,-0.02024364471435547
119959549027.93384,d4:ca:6e:f1:7a:a0,-3.7327048778533936,-17.601022720336914,129.0033416748047,-0.0031237611547112465,-0.10338636487722397,0.009087562561035156
119959565698.26724,d4:ca:6e:f1:7a:a0,-3.7342331409454346,-17.601041793823242,128.9852752685547,0.0035200496204197407,-0.12306472659111023,-0.01703929901123047
119959582368.60065,d4:ca:6e:f1:7a:a0,-3.7365996837615967,-17.600881576538086,128.96926879882812,0.010086329653859138,-0.14106008410453796,-0.024852752685546875
119959599038.93405,d4:ca:6e:f1:7a:a0,-3.737884998321533,-17.601335525512695,128.9528045654297,-0.02602839097380638,-0.11338052153587341,0.0000934600830078125
119959615709.26746,d4:ca:6e:f1:7a:a0,-3.7351431846618652,-17.601783752441406,128.93580627441406,-0.09145990759134293,-0.011854959651827812,0.03684425354003906
119959632379.60086,d4:ca:6e:f1:7a:a0,-3.7335662841796875,-17.600269317626953,128.91934204101562,-0.06002867966890335,-0.03754822164773941,-0.04996490478515625
119959649049.93427,d4:ca:6e:f1:7a:a0,-3.7371978759765625,-17.604393005371094,128.91159057617188,-0.019619716331362724,-0.03083081915974617,-0.024186134338378906
119959665720.26767,d4:ca:6e:f1:7a:a0,-3.740623950958252,-17.606632232666016,128.90235900878906,0.017900314182043076,-0.030623063445091248,0.0067958831787109375
119959682390.60107,d4:ca:6e:f1:7a:a0,-3.7424144744873047,-17.606536865234375,128.89198303222656,0.027707168832421303,-0.05540478229522705,-0.024025917053222656
119959699060.93448,d4:ca:6e:f1:7a:a0,-3.743042230606079,-17.60919761657715,128.88107299804688,0.03521818295121193,-0.020954003557562828,0.00955963134765625
119959715731.26788,d4:ca:6e:f1:7a:a0,-3.737914562225342,-17.60258674621582,128.86788940429688,-0.0017447421560063958,0.00845527183264494,0.1137094497680664
119959732401.60129,d4:ca:6e:f1:7a:a0,-3.73335337638855,-17.604665756225586,128.8510284423828,-0.0759718269109726,-0.11963871866464615,-0.2985849380493164
119959749071.9347,d4:ca:6e:f1:7a:a0,-3.7503714561462402,-17.619644165039062,128.83941650390625,-0.06370904296636581,-0.4107847809791565,-0.043137550354003906
119959765742.2681,d4:ca:6e:f1:7a:a0,-3.7638752460479736,-17.629322052001953,128.83470153808594,-0.07478659600019455,-0.34590116143226624,0.20835399627685547
119959782412.6015,d4:ca:6e:f1:7a:a0,-3.757171869277954,-17.620023727416992,128.8090057373047,-0.04001496732234955,-0.2718420922756195,-0.10026073455810547
119959799082.9349,d4:ca:6e:f1:7a:a0,-3.7588233947753906,-17.618181228637695,128.78396606445312,-0.1119796559214592,-0.2905566692352295,-0.06968307495117188
119959815753.26831,d4:ca:6e:f1:7a:a0,-3.7624921798706055,-17.62639617919922,128.77703857421875,-0.21801498532295227,-0.1026572659611702,0.0072078704833984375
119959832423.60172,d4:ca:6e:f1:7a:a0,-3.7642369270324707,-17.62358856201172,128.76568603515625,-0.17380057275295258,0.013480848632752895,0.04431438446044922
119959849093.93512,d4:ca:6e:f1:7a:a0,-3.7699899673461914,-17.632535934448242,128.7635955810547,0.024683959782123566,-0.026900287717580795,-0.08128643035888672
119959865764.26852,d4:ca:6e:f1:7a:a0,-3.7730648517608643,-17.636138916015625,128.75526428222656,0.2223721444606781,0.005384203512221575,0.009382247924804688
119959882434.60193,d4:ca:6e:f1:7a:a0,-3.7734265327453613,-17.636474609375,128.7386474609375,0.27907827496528625,0.10899665206670761,0.009089469909667969
119959899104.93533,d4:ca:6e:f1:7a:a0,-3.774686574935913,-17.638381958007812,128.7152862548828,0.18158426880836487,0.20302966237068176,-0.06304073333740234
119959915775.26874,d4:ca:6e:f1:7a:a0,-3.777902364730835,-17.641752243041992,128.69497680664062,-0.0003375324886292219,0.22890609502792358,-0.00146484375
119959932445.60214,d4:ca:6e:f1:7a:a0,-3.7798733711242676,-17.642818450927734,128.68304443359375,-0.1411217451095581,0.20626625418663025,-0.03787708282470703
119959949115.93555,d4:ca:6e:f1:7a:a0,-3.7860605716705322,-17.646984100341797,128.68600463867188,-0.14082160592079163,0.0695541575551033,0.03309440612792969
119959965786.26895,d4:ca:6e:f1:7a:a0,-3.78998064994812,-17.651899337768555,128.6964874267578,-0.022015634924173355,-0.06952286511659622,-0.03952312469482422
119959982456.60236,d4:ca:6e:f1:7a:a0,-3.795969009399414,-17.657163619995117,128.70135498046875,0.14174415171146393,-0.21207602322101593,0.019710540771484375
119959999126.93576,d4:ca:6e:f1:7a:a0,-3.8008620738983154,-17.660293579101562,128.69480895996094,0.23300136625766754,-0.2714666426181793,-0.06540489196777344
119960015797.26917,d4:ca:6e:f1:7a:a0,-3.8023757934570312,-17.661428451538086,128.67324829101562,0.126901775598526,-0.27833864092826843,-0.017511367797851562
119960032467.60257,d4:ca:6e:f1:7a:a0,-3.8043901920318604,-17.662343978881836,128.65003967285156,-0.09783952683210373,-0.13376742601394653,-0.019553184509277344
119960049137.93597,d4:ca:6e:f1:7a:a0,-3.8057661056518555,-17.660348892211914,128.6299285888672,-0.25040486454963684,-0.05466623976826668,-0.0026350021362304688
119960065808.26938,d4:ca:6e:f1:7a:a0,-3.808847665786743,-17.662803649902344,128.62249755859375,-0.24219274520874023,-0.06893228739500046,-0.007984161376953125
119960082478.60278,d4:ca:6e:f1:7a:a0,-3.8137083053588867,-17.666881561279297,128.62344360351562,-0.02667166106402874,-0.058952994644641876,-0.02974414825439453
119960099148.93619,d4:ca:6e:f1:7a:a0,-3.81717848777771,-17.670228958129883,128.62075805664062,0.12829247117042542,-0.10474493354558945,0.007048606872558594
119960115819.26959,d4:ca:6e:f1:7a:a0,-3.818019390106201,-17.67009735107422,128.61001586914062,0.10225678980350494,-0.13054265081882477,-0.03244972229003906
119960132489.603,d4:ca:6e:f1:7a:a0,-3.81892991065979,-17.66974449157715,128.5948486328125,-0.0033199216704815626,-0.11837676167488098,-0.006482124328613281
119960149159.9364,d4:ca:6e:f1:7a:a0,-3.820514678955078,-17.669565200805664,128.58042907714844,-0.11409805715084076,-0.07340925186872482,-0.0019521713256835938
119960165830.2698,d4:ca:6e:f1:7a:a0,-3.8231310844421387,-17.67197036743164,128.57095336914062,-0.1224849596619606,-0.048007119446992874,-0.01641559600830078
119960182500.60321,d4:ca:6e:f1:7a:a0,-3.826289415359497,-17.673917770385742,128.56350708007812,-0.01555605512112379,-0.05057617649435997,-0.010625839233398438
119960199170.93661,d4:ca:6e:f1:7a:a0,-3.8301169872283936,-17.677751541137695,128.55638122558594,0.030647315084934235,-0.05512041971087456,-0.03154468536376953
119960215841.27002,d4:ca:6e:f1:7a:a0,-3.831198215484619,-17.678865432739258,128.5480194091797,-0.003991494420915842,-0.09441488981246948,-0.010783195495605469
119960232511.60342,d4:ca:6e:f1:7a:a0,-3.8322629928588867,-17.679893493652344,128.53726196289062,-0.03913829103112221,-0.11709100753068924,-0.007472991943359375
119960249181.93683,d4:ca:6e:f1:7a:a0,-3.8357932567596436,-17.68233299255371,128.52755737304688,-0.06725843250751495,-0.12768474221229553,-0.018675804138183594
119960265852.27023,d4:ca:6e:f1:7a:a0,-3.8364200592041016,-17.684141159057617,128.5163116455078,-0.01626615598797798,-0.13033118844032288,0.011801719665527344
119960282522.60364,d4:ca:6e:f1:7a:a0,-3.836643695831299,-17.68631362915039,128.5048065185547,-0.013276166282594204,-0.10718798637390137,-0.011389732360839844
119960299192.93704,d4:ca:6e:f1:7a:a0,-3.836484909057617,-17.68809700012207,128.49273681640625,-0.010039363987743855,-0.08028294891119003,-0.018463134765625
119960315863.27045,d4:ca:6e:f1:7a:a0,-3.835832118988037,-17.688154220581055,128.48069763183594,-0.03058425523340702,-0.06567257642745972,-0.008879661560058594
119960332533.60385,d4:ca:6e:f1:7a:a0,-3.836669683456421,-17.68875503540039,128.46685791015625,-0.02943296916782856,-0.08648873120546341,-0.016721725463867188
119960349203.93726,d4:ca:6e:f1:7a:a0,-3.838148355484009,-17.690471649169922,128.455078125,-0.027108237147331238,-0.08411077409982681,-0.02501201629638672
119960365874.27066,d4:ca:6e:f1:7a:a0,-3.841087579727173,-17.692399978637695,128.4425048828125,-0.01834820583462715,-0.08091443032026291,-0.013044357299804688
119960382544.60406,d4:ca:6e:f1:7a:a0,-3.8423852920532227,-17.694950103759766,128.43060302734375,-0.0050977435894310474,-0.06613759696483612,-0.014014244079589844
119960399214.93747,d4:ca:6e:f1:7a:a0,-3.8438994884490967,-17.69473648071289,128.41940307617188,-0.006060218438506126,-0.0370619110763073,-0.00412750244140625
119960415885.27087,d4:ca:6e:f1:7a:a0,-3.842987298965454,-17.695951461791992,128.40846252441406,-0.0034676080103963614,-0.06025523692369461,-0.01669025421142578
119960432555.60428,d4:ca:6e:f1:7a:a0,-3.8443424701690674,-17.6972599029541,128.40032958984375,-0.022322937846183777,-0.047877758741378784,-0.0008144378662109375
119960449225.93768,d4:ca:6e:f1:7a:a0,-3.8440794944763184,-17.69765853881836,128.39215087890625,-0.023183323442935944,-0.06530909240245819,-0.015005111694335938
119960465896.27109,d4:ca:6e:f1:7a:a0,-3.844733476638794,-17.699153900146484,128.3849334716797,-0.02061566151678562,-0.08229802548885345,-0.02469158172607422
119960482566.60449,d4:ca:6e:f1:7a:a0,-3.844888210296631,-17.699920654296875,128.3780059814453,-0.013871773146092892,-0.08680516481399536,-0.0045490264892578125
119960499236.9379,d4:ca:6e:f1:7a:a0,-3.845043420791626,-17.700288772583008,128.37107849121094,-0.0016357236308977008,-0.11157046258449554,-0.0029315948486328125
119960515907.2713,d4:ca:6e:f1:7a:a0,-3.843973398208618,-17.700273513793945,128.36260986328125,0.0046478682197630405,-0.1305241882801056,-0.0056934356689453125
119960532577.6047,d4:ca:6e:f1:7a:a0,-3.8433847427368164,-17.701282501220703,128.35340881347656,-0.013335900381207466,-0.12449660152196884,-0.012620925903320312
119960549247.93811,d4:ca:6e:f1:7a:a0,-3.842862129211426,-17.700265884399414,128.34298706054688,-0.024830501526594162,-0.10696877539157867,-0.00925445556640625
119960565918.27151,d4:ca:6e:f1:7a:a0,-3.843226194381714,-17.700422286987305,128.3324432373047,-0.04948294535279274,-0.10337021946907043,-0.018968582153320312
119960582588.60492,d4:ca:6e:f1:7a:a0,-3.84171199798584,-17.70026206970215,128.32290649414062,-0.01603671908378601,-0.11050011217594147,-0.019570350646972656
119960599258.93832,d4:ca:6e:f1:7a:a0,-3.841137170791626,-17.70004653930664,128.3108673095703,-0.002824952360242605,-0.10890333354473114,-0.014825820922851562
119960615929.27173,d4:ca:6e:f1:7a:a0,-3.8420515060424805,-17.700862884521484,128.29751586914062,-0.015328015200793743,-0.11433911323547363,-0.017591476440429688
119960632599.60513,d4:ca:6e:f1:7a:a0,-3.84260892868042,-17.701120376586914,128.28408813476562,-0.017735809087753296,-0.11063198745250702,-0.01600170135498047
119960649269.93854,d4:ca:6e:f1:7a:a0,-3.8428139686584473,-17.701189041137695,128.27223205566406,-0.028381898999214172,-0.08281306177377701,-0.0048580169677734375
119960665940.27194,d4:ca:6e:f1:7a:a0,-3.844696044921875,-17.702943801879883,128.26097106933594,-0.015084079466760159,-0.08207602798938751,-0.013379096984863281
119960682610.60535,d4:ca:6e:f1:7a:a0,-3.8446404933929443,-17.70414161682129,128.24964904785156,-0.015483524650335312,-0.09760011732578278,-0.02742767333984375
119960699280.93875,d4:ca:6e:f1:7a:a0,-3.8470277786254883,-17.705461502075195,128.23806762695312,-0.005880150943994522,-0.11456581205129623,-0.01464080810546875
119960715951.27216,d4:ca:6e:f1:7a:a0,-3.849189043045044,-17.70720863342285,128.2252960205078,-0.015578797087073326,-0.10687780380249023,-0.019616127014160156
119960732621.60556,d4:ca:6e:f1:7a:a0,-3.8496012687683105,-17.707136154174805,128.2135467529297,-0.021038996055722237,-0.08725269883871078,0.0062408447265625
119960749291.93896,d4:ca:6e:f1:7a:a0,-3.84940242767334,-17.707061767578125,128.19996643066406,-0.01977374404668808,-0.07519099116325378,-0.013807296752929688
119960765962.27237,d4:ca:6e:f1:7a:a0,-3.851069927215576,-17.707202911376953,128.186279296875,-0.023318519815802574,-0.07637403905391693,-0.025592803955078125
119960782632.60577,d4:ca:6e:f1:7a:a0,-3.8509318828582764,-17.707538604736328,128.1744842529297,-0.023488612845540047,-0.0487435944378376,-0.011806488037109375
119960799302.93918,d4:ca:6e:f1:7a:a0,-3.849029779434204,-17.707069396972656,128.1627197265625,-0.026173869147896767,-0.05711856856942177,-0.009295463562011719
119960815973.27258,d4:ca:6e:f1:7a:a0,-3.8484275341033936,-17.70619010925293,128.1523895263672,-0.01129125989973545,-0.0648748055100441,-0.009453773498535156
119960832643.60599,d4:ca:6e:f1:7a:a0,-3.8473119735717773,-17.705625534057617,128.1400146484375,-0.009645896963775158,-0.0939297005534172,-0.019303321838378906
119960849313.93939,d4:ca:6e:f1:7a:a0,-3.8463733196258545,-17.70676612854004,128.12765502929688,-0.014133394695818424,-0.0984140932559967,-0.0164642333984375
119960865984.2728,d4:ca:6e:f1:7a:a0,-3.845979690551758,-17.707590103149414,128.11502075195312,-0.022600792348384857,-0.11176318675279617,-0.007195472717285156
119960882654.6062,d4:ca:6e:f1:7a:a0,-3.8450064659118652,-17.707754135131836,128.1023712158203,-0.011596773751080036,-0.10043168812990189,-0.008007049560546875
119960899324.9396,d4:ca:6e:f1:7a:a0,-3.8454244136810303,-17.70901107788086,128.09075927734375,-0.023387808352708817,-0.08734969794750214,-0.02940845489501953
119960915995.27301,d4:ca:6e:f1:7a:a0,-3.8465418815612793,-17.709932327270508,128.07980346679688,-0.025059321895241737,-0.0627247765660286,-0.011905670166015625
119960932556.2,d4:ca:6e:f1:7a:a0,-3.8461802005767822,-17.710155487060547,128.06903076171875,-0.0230296291410923,-0.06894156336784363,-0.021928787231445312
119960949226.5334,d4:ca:6e:f1:7a:a0,-3.846165418624878,-17.71078109741211,128.05950927734375,-0.02089080587029457,-0.07577357441186905,-0.01337432861328125
119960965896.8668,d4:ca:6e:f1:7a:a0,-3.8460569381713867,-17.711559295654297,128.05027770996094,-0.014270268380641937,-0.08719508349895477,-0.00063323974609375
119960982567.20021,d4:ca:6e:f1:7a:a0,-3.8450887203216553,-17.710765838623047,128.0401611328125,-0.01581837423145771,-0.09933803975582123,-0.01290130615234375
119960999237.53362,d4:ca:6e:f1:7a:a0,-3.844550132751465,-17.709760665893555,128.0297393798828,-0.020458392798900604,-0.09033533185720444,-0.02162647247314453
119961015907.86702,d4:ca:6e:f1:7a:a0,-3.8436975479125977,-17.709863662719727,128.0186004638672,-0.011643543839454651,-0.10524129867553711,-0.014258384704589844
119961032578.20042,d4:ca:6e:f1:7a:a0,-3.8430187702178955,-17.709314346313477,128.00706481933594,-0.019355328753590584,-0.09012489765882492,0.0034303665161132812
119961049248.53383,d4:ca:6e:f1:7a:a0,-3.8417346477508545,-17.707910537719727,127.9961929321289,-0.02304943837225437,-0.07904502004384995,-0.0275726318359375
119961065918.86723,d4:ca:6e:f1:7a:a0,-3.841665029525757,-17.70779037475586,127.98590087890625,-0.02639377862215042,-0.07735895365476608,-0.015816688537597656
119961082589.20064,d4:ca:6e:f1:7a:a0,-3.8395581245422363,-17.705455780029297,127.97480773925781,-0.009674199856817722,-0.09138830006122589,-0.005036354064941406
119961099259.53404,d4:ca:6e:f1:7a:a0,-3.839254140853882,-17.704370498657227,127.96482849121094,-0.009304733015596867,-0.10045890510082245,-0.027997970581054688
119961115929.86745,d4:ca:6e:f1:7a:a0,-3.836547613143921,-17.702388763427734,127.95277404785156,-0.012383065186440945,-0.10788170993328094,-0.020200729370117188
119961132600.20085,d4:ca:6e:f1:7a:a0,-3.83677339553833,-17.702016830444336,127.94146728515625,-0.016594160348176956,-0.09863732755184174,-0.017364501953125
119961149270.53426,d4:ca:6e:f1:7a:a0,-3.8347373008728027,-17.70235824584961,127.9299087524414,-0.030735602602362633,-0.09494757652282715,-0.007897377014160156
119961165940.86766,d4:ca:6e:f1:7a:a0,-3.8336703777313232,-17.70083236694336,127.9179458618164,-0.012951122596859932,-0.08130870759487152,-0.012400627136230469
119961182611.20107,d4:ca:6e:f1:7a:a0,-3.8318731784820557,-17.700237274169922,127.90576934814453,-0.013913961127400398,-0.07701854407787323,-0.012900352478027344
119961199281.53447,d4:ca:6e:f1:7a:a0,-3.8310389518737793,-17.699831008911133,127.8926010131836,-0.023601599037647247,-0.07600066065788269,-0.014904022216796875
119961215951.86787,d4:ca:6e:f1:7a:a0,-3.8305985927581787,-17.698915481567383,127.88191986083984,-0.0315326489508152,-0.07579553127288818,-0.027385711669921875
119961232622.20128,d4:ca:6e:f1:7a:a0,-3.8290865421295166,-17.69769859313965,127.87132263183594,-0.022659240290522575,-0.088277168571949,-0.017614364624023438
119961249292.53468,d4:ca:6e:f1:7a:a0,-3.828627109527588,-17.697195053100586,127.86092376708984,-0.014382947236299515,-0.10044241696596146,-0.010578155517578125
119961265962.86809,d4:ca:6e:f1:7a:a0,-3.827866792678833,-17.696285247802734,127.84896087646484,-0.0184654388576746,-0.0892685055732727,-0.007373809814453125
119961282633.20149,d4:ca:6e:f1:7a:a0,-3.827564239501953,-17.69657325744629,127.8377456665039,-0.023428097367286682,-0.09286672621965408,-0.00974273681640625
119961299303.5349,d4:ca:6e:f1:7a:a0,-3.825352191925049,-17.695688247680664,127.8271713256836,-0.02521301619708538,-0.08155540376901627,-0.016611099243164062
119961315973.8683,d4:ca:6e:f1:7a:a0,-3.824751377105713,-17.693872451782227,127.8163070678711,-0.010051685385406017,-0.07797512412071228,-0.012106895446777344
119961332644.2017,d4:ca:6e:f1:7a:a0,-3.823488712310791,-17.692764282226562,127.80657958984375,-0.0027219129260629416,-0.09217942506074905,-0.004979133605957031
119961349314.53511,d4:ca:6e:f1:7a:a0,-3.822589159011841,-17.692604064941406,127.79719543457031,-0.018484102562069893,-0.08949509263038635,-0.028766632080078125
119961365984.86852,d4:ca:6e:f1:7a:a0,-3.820202112197876,-17.692649841308594,127.7842788696289,-0.015354418195784092,-0.082940012216568,-0.010972023010253906
119961382655.20192,d4:ca:6e:f1:7a:a0,-3.81770658493042,-17.692119598388672,127.77379608154297,-0.009794561192393303,-0.08267620950937271,-0.01727771759033203
119961399325.53532,d4:ca:6e:f1:7a:a0,-3.816080093383789,-17.690282821655273,127.76174926757812,-0.013709474354982376,-0.08432970941066742,-0.029052734375
119961415995.86873,d4:ca:6e:f1:7a:a0,-3.8147952556610107,-17.689739227294922,127.74998474121094,-0.017634138464927673,-0.07895153760910034,-0.008902549743652344
119961432666.20213,d4:ca:6e:f1:7a:a0,-3.8130953311920166,-17.689125061035156,127.73869323730469,-0.023340145125985146,-0.07550854235887527,-0.018980026245117188
119961449336.53554,d4:ca:6e:f1:7a:a0,-3.811760425567627,-17.689716339111328,127.72669982910156,-0.017896346747875214,-0.08430668711662292,-0.005458831787109375
119961466006.86894,d4:ca:6e:f1:7a:a0,-3.810075521469116,-17.688188552856445,127.71534729003906,-0.010842027142643929,-0.07860509306192398,-0.023232460021972656
119961482677.20235,d4:ca:6e:f1:7a:a0,-3.8089942932128906,-17.687713623046875,127.70387268066406,-0.011902065016329288,-0.09592371433973312,-0.014933586120605469
119961499347.53575,d4:ca:6e:f1:7a:a0,-3.8076729774475098,-17.68715476989746,127.6927490234375,-0.002581937937065959,-0.09980401396751404,-0.008096694946289062
119961516017.86916,d4:ca:6e:f1:7a:a0,-3.8050830364227295,-17.68663787841797,127.68151092529297,-0.016466647386550903,-0.09338298439979553,-0.010098457336425781
119961532688.20256,d4:ca:6e:f1:7a:a0,-3.8048200607299805,-17.685138702392578,127.66985321044922,-0.008800766430795193,-0.09015629440546036,0.0017242431640625
119961549358.53596,d4:ca:6e:f1:7a:a0,-3.8037922382354736,-17.68474006652832,127.6570053100586,-0.024723103269934654,-0.0758458822965622,-0.0223846435546875
119961566028.86937,d4:ca:6e:f1:7a:a0,-3.804044485092163,-17.683734893798828,127.64517211914062,-0.02238526940345764,-0.08035670965909958,-0.0031480789184570312
119961582699.20277,d4:ca:6e:f1:7a:a0,-3.8025400638580322,-17.68337631225586,127.6318130493164,-0.0175639558583498,-0.0732695609331131,-0.02046489715576172
119961599369.53618,d4:ca:6e:f1:7a:a0,-3.8013973236083984,-17.682830810546875,127.62061309814453,-0.017574209719896317,-0.07155286520719528,-0.014322280883789062
119961616039.86958,d4:ca:6e:f1:7a:a0,-3.800238847732544,-17.681888580322266,127.60903930664062,-0.016326364129781723,-0.07281996309757233,-0.009039878845214844
119961632710.20299,d4:ca:6e:f1:7a:a0,-3.798906087875366,-17.68081283569336,127.59588623046875,-0.0166681706905365,-0.09209901839494705,-0.004702568054199219
119961649380.53639,d4:ca:6e:f1:7a:a0,-3.7972428798675537,-17.67949104309082,127.58293914794922,-0.025969356298446655,-0.07754866033792496,-0.008435249328613281
119961666050.8698,d4:ca:6e:f1:7a:a0,-3.796168327331543,-17.678226470947266,127.57076263427734,-0.023034770041704178,-0.09116847813129425,-0.007224082946777344
119961682721.2032,d4:ca:6e:f1:7a:a0,-3.794585943222046,-17.678178787231445,127.55908203125,-0.017844045534729958,-0.07359493523836136,-0.008968353271484375
119961699391.5366,d4:ca:6e:f1:7a:a0,-3.7933735847473145,-17.67746925354004,127.5483169555664,-0.01850542053580284,-0.07792539149522781,-0.021820068359375
119961716061.87001,d4:ca:6e:f1:7a:a0,-3.7919788360595703,-17.67580223083496,127.5367660522461,-0.01470192801207304,-0.05825949087738991,0.0017690658569335938
119961732732.20341,d4:ca:6e:f1:7a:a0,-3.7904627323150635,-17.675617218017578,127.52526092529297,-0.02366650104522705,-0.08049606531858444,0.00039577484130859375
119961749402.53682,d4:ca:6e:f1:7a:a0,-3.7889394760131836,-17.67335319519043,127.51367950439453,-0.0027003157883882523,-0.08057335019111633,-0.026790618896484375
119961766072.87022,d4:ca:6e:f1:7a:a0,-3.788285493850708,-17.671871185302734,127.5027084350586,0.0013760575093328953,-0.08945541828870773,-0.013874053955078125
119961782743.20363,d4:ca:6e:f1:7a:a0,-3.7870893478393555,-17.67049217224121,127.49042510986328,-0.009063757956027985,-0.0712210088968277,-0.03413105010986328
119961799413.53703,d4:ca:6e:f1:7a:a0,-3.7861578464508057,-17.670717239379883,127.47813415527344,-0.019187692552804947,-0.0814955085515976,-0.011427879333496094
119961816083.87044,d4:ca:6e:f1:7a:a0,-3.7830898761749268,-17.669071197509766,127.46773529052734,-0.024860871955752373,-0.0718076154589653,-0.013588905334472656
119961832754.20384,d4:ca:6e:f1:7a:a0,-3.781576156616211,-17.667739868164062,127.45641326904297,-0.013886328786611557,-0.06744520366191864,-0.01811504364013672
119961849424.53725,d4:ca:6e:f1:7a:a0,-3.779984712600708,-17.666976928710938,127.4453353881836,-0.017292359843850136,-0.06839463114738464,-0.0135345458984375
119961866094.87065,d4:ca:6e:f1:7a:a0,-3.778801441192627,-17.664531707763672,127.43424224853516,-0.021531421691179276,-0.07350397109985352,-0.018035888671875
119961882765.20406,d4:ca:6e:f1:7a:a0,-3.776724100112915,-17.662769317626953,127.42382049560547,-0.019332418218255043,-0.075965516269207,0.0010194778442382812
119961899435.53746,d4:ca:6e:f1:7a:a0,-3.7740910053253174,-17.661273956298828,127.41230010986328,-0.005852016154676676,-0.08072198182344437,-0.014947891235351562
119961916105.87086,d4:ca:6e:f1:7a:a0,-3.7723445892333984,-17.659975051879883,127.400146484375,-0.025398029014468193,-0.07069234549999237,-0.01221466064453125
119961932776.20427,d4:ca:6e:f1:7a:a0,-3.7689316272735596,-17.660037994384766,127.38692474365234,-0.026891207322478294,-0.06276439130306244,-0.03472709655761719
119961949446.53767,d4:ca:6e:f1:7a:a0,-3.7665719985961914,-17.65976905822754,127.37674713134766,-0.016097402200102806,-0.08062564581632614,0.0032672882080078125
119961966116.87108,d4:ca:6e:f1:7a:a0,-3.764638900756836,-17.657569885253906,127.36588287353516,0.00287135923281312,-0.08554466813802719,-0.035246849060058594
119961982787.20448,d4:ca:6e:f1:7a:a0,-3.7639358043670654,-17.657182693481445,127.35369873046875,-0.014984448440372944,-0.0853036642074585,-0.023899078369140625
119961999457.53789,d4:ca:6e:f1:7a:a0,-3.7618415355682373,-17.655872344970703,127.34310150146484,-0.01668431982398033,-0.06870011240243912,-0.014805793762207031
119962016127.87129,d4:ca:6e:f1:7a:a0,-3.758770227432251,-17.6539249420166,127.3311767578125,-0.01985415257513523,-0.07501324266195297,-0.0038852691650390625
119962032798.2047,d4:ca:6e:f1:7a:a0,-3.7580554485321045,-17.651830673217773,127.31880187988281,-0.01798700913786888,-0.07650524377822876,-0.019565582275390625
119962049468.5381,d4:ca:6e:f1:7a:a0,-3.7564470767974854,-17.650527954101562,127.30465698242188,-0.009013970382511616,-0.06681366264820099,-0.0013589859008789062
119962066138.8715,d4:ca:6e:f1:7a:a0,-3.755401134490967,-17.64961051940918,127.29231262207031,-0.026299595832824707,-0.07443657517433167,-0.021445274353027344
119962082809.20491,d4:ca:6e:f1:7a:a0,-3.754999876022339,-17.648052215576172,127.28028869628906,-0.01814643107354641,-0.06040387228131294,-0.026409149169921875
119962099479.53831,d4:ca:6e:f1:7a:a0,-3.7541418075561523,-17.646562576293945,127.26773834228516,-0.020658185705542564,-0.04739765450358391,-0.01861095428466797
119962116149.87172,d4:ca:6e:f1:7a:a0,-3.7520956993103027,-17.64457893371582,127.25626373291016,-0.011473758146166801,-0.05947204679250717,-0.011214256286621094
119962132820.20512,d4:ca:6e:f1:7a:a0,-3.7494328022003174,-17.64283561706543,127.24314880371094,-0.0006166163948364556,-0.07882178574800491,-0.014165878295898438
119962149490.53853,d4:ca:6e:f1:7a:a0,-3.746297836303711,-17.640735626220703,127.2288589477539,-0.023487746715545654,-0.07415343821048737,-0.017513275146484375
119962166160.87193,d4:ca:6e:f1:7a:a0,-3.7453830242156982,-17.638734817504883,127.21636199951172,-0.02766375057399273,-0.07111891359090805,-0.01636219024658203
119962182831.20534,d4:ca:6e:f1:7a:a0,-3.743727922439575,-17.637229919433594,127.20487213134766,-0.015256770886480808,-0.07287980616092682,-0.008427619934082031
119962199501.53874,d4:ca:6e:f1:7a:a0,-3.7417497634887695,-17.635557174682617,127.1927261352539,-0.012258707545697689,-0.057626109570264816,-0.011606216430664062
119962216171.87215,d4:ca:6e:f1:7a:a0,-3.7413761615753174,-17.634700775146484,127.18109130859375,-0.020883625373244286,-0.053294986486434937,-0.012085914611816406
119962232842.20555,d4:ca:6e:f1:7a:a0,-3.7395026683807373,-17.632911682128906,127.16886138916016,-0.02326876111328602,-0.05594272166490555,-0.026292800903320312
119962249512.53896,d4:ca:6e:f1:7a:a0,-3.738142490386963,-17.631147384643555,127.15648651123047,-0.022648092359304428,-0.07027940452098846,-0.015231132507324219
119962266182.87236,d4:ca:6e:f1:7a:a0,-3.737093687057495,-17.630239486694336,127.1444091796875,-0.013118087314069271,-0.060785744339227676,-0.011275291442871094
119962282853.20576,d4:ca:6e:f1:7a:a0,-3.7366578578948975,-17.628582000732422,127.13410949707031,-0.01892123743891716,-0.059172820299863815,-0.012048721313476562
119962299523.53917,d4:ca:6e:f1:7a:a0,-3.7353360652923584,-17.628637313842773,127.12345123291016,-0.022392338141798973,-0.06491341441869736,-0.025424957275390625
119962316193.87257,d4:ca:6e:f1:7a:a0,-3.7343521118164062,-17.627628326416016,127.11138153076172,-0.0291205532848835,-0.060378167778253555,-0.0022420883178710938
119962332864.20598,d4:ca:6e:f1:7a:a0,-3.7323551177978516,-17.627349853515625,127.09982299804688,-0.02316284365952015,-0.045978348702192307,-0.018484115600585938
119962349534.53938,d4:ca:6e:f1:7a:a0,-3.730799674987793,-17.6280460357666,127.08914184570312,-0.038881029933691025,-0.03429890051484108,-0.01728057861328125
119962366204.87279,d4:ca:6e:f1:7a:a0,-3.7300076484680176,-17.627269744873047,127.08008575439453,-0.028539977967739105,-0.047579146921634674,-0.01666736602783203
119962382875.20619,d4:ca:6e:f1:7a:a0,-3.72871994972229,-17.627696990966797,127.07243347167969,-0.030901895835995674,-0.049193356186151505,-0.017187118530273438
119962399545.5396,d4:ca:6e:f1:7a:a0,-3.727522373199463,-17.62784767150879,127.06463623046875,-0.033677369356155396,-0.04620666429400444,0.001949310302734375
119962416215.873,d4:ca:6e:f1:7a:a0,-3.7258622646331787,-17.628456115722656,127.0573501586914,-0.006441392004489899,-0.05079739913344383,-0.01690387725830078
119962432886.2064,d4:ca:6e:f1:7a:a0,-3.725916862487793,-17.628231048583984,127.05034637451172,0.011345489881932735,-0.07121329754590988,-0.02481365203857422
119962449556.53981,d4:ca:6e:f1:7a:a0,-3.7251062393188477,-17.628219604492188,127.04412841796875,-0.004735680762678385,-0.07274436205625534,-0.03194618225097656
119962466226.87321,d4:ca:6e:f1:7a:a0,-3.722719430923462,-17.629831314086914,127.03681945800781,-0.011163187213242054,-0.08439675718545914,-0.0037136077880859375
119962482897.20662,d4:ca:6e:f1:7a:a0,-3.7213540077209473,-17.629243850708008,127.02743530273438,-0.018491031602025032,-0.0830395296216011,-0.013950347900390625
119962499567.54002,d4:ca:6e:f1:7a:a0,-3.718902349472046,-17.628528594970703,127.01839447021484,0.006338994950056076,-0.07441087067127228,-0.016864776611328125
119962516237.87343,d4:ca:6e:f1:7a:a0,-3.7183468341827393,-17.62704086303711,127.00951385498047,0.015658367425203323,-0.07895471900701523,-0.009037971496582031
119962532908.20683,d4:ca:6e:f1:7a:a0,-3.718003273010254,-17.625511169433594,126.99812316894531,-0.004698829259723425,-0.08744944632053375,-0.0061187744140625
119962549578.54024,d4:ca:6e:f1:7a:a0,-3.7162086963653564,-17.62417221069336,126.98545837402344,0.008834964595735073,-0.09528446942567825,-0.01772785186767578
119962566248.87364,d4:ca:6e:f1:7a:a0,-3.7134454250335693,-17.622440338134766,126.96826934814453,0.008057921193540096,-0.11213315278291702,-0.022281646728515625
119962582766.4,d4:ca:6e:f1:7a:a0,-3.712815761566162,-17.621253967285156,126.95413208007812,-0.021641725674271584,-0.07717494666576385,-0.02145671844482422
119962599436.7334,d4:ca:6e:f1:7a:a0,-3.713167905807495,-17.620132446289062,126.93995666503906,-0.027735024690628052,-0.052859921008348465,-0.003551483154296875
119962616107.0668,d4:ca:6e:f1:7a:a0,-3.7112438678741455,-17.618473052978516,126.92523956298828,0.006329691503196955,-0.05282739922404289,-0.006983757019042969
119962632777.4002,d4:ca:6e:f1:7a:a0,-3.710026979446411,-17.61687469482422,126.91062927246094,0.008901375345885754,-0.055014193058013916,0.006958961486816406
119962649447.73361,d4:ca:6e:f1:7a:a0,-3.7093613147735596,-17.613937377929688,126.89659881591797,-0.0025231540203094482,-0.06197477877140045,-0.01711559295654297
119962666118.06702,d4:ca:6e:f1:7a:a0,-3.7071585655212402,-17.612380981445312,126.8826904296875,-0.02336934208869934,-0.07715298235416412,-0.021703720092773438
119962682788.40042,d4:ca:6e:f1:7a:a0,-3.7072906494140625,-17.6117000579834,126.86860656738281,-0.02643434703350067,-0.07410180568695068,-0.019454002380371094
119962699458.73383,d4:ca:6e:f1:7a:a0,-3.7064077854156494,-17.609617233276367,126.85504150390625,-0.012893401086330414,-0.06400645524263382,-0.005387306213378906
119962716129.06723,d4:ca:6e:f1:7a:a0,-3.7052671909332275,-17.6077880859375,126.84026336669922,-0.0027806968428194523,-0.0444016307592392,-0.012241363525390625
119962732799.40063,d4:ca:6e:f1:7a:a0,-3.70351505279541,-17.60570526123047,126.82647705078125,-0.001139050000347197,-0.04664301872253418,-0.004467010498046875
119962749469.73404,d4:ca:6e:f1:7a:a0,-3.701813220977783,-17.60236167907715,126.81446075439453,-0.019033581018447876,-0.053277887403964996,-0.005768775939941406
119962766140.06744,d4:ca:6e:f1:7a:a0,-3.7005507946014404,-17.60025978088379,126.8001708984375,-0.026819627732038498,-0.058351464569568634,-0.019563674926757812
119962782810.40085,d4:ca:6e:f1:7a:a0,-3.698519229888916,-17.59825325012207,126.78671264648438,-0.0021833584178239107,-0.06508591026067734,-0.013759613037109375
119962799480.73425,d4:ca:6e:f1:7a:a0,-3.6972484588623047,-17.595640182495117,126.77306365966797,0.010923050343990326,-0.06316543370485306,-0.016425132751464844
119962816151.06766,d4:ca:6e:f1:7a:a0,-3.6956570148468018,-17.59300994873047,126.7593002319336,-0.015840670093894005,-0.06212687864899635,-0.018819808959960938
119962832821.40106,d4:ca:6e:f1:7a:a0,-3.6934196949005127,-17.591121673583984,126.7442855834961,-0.011943470686674118,-0.055771175771951675,-0.015867233276367188
119962849491.73447,d4:ca:6e:f1:7a:a0,-3.6908578872680664,-17.586898803710938,126.7301025390625,-0.019170036539435387,-0.04052569344639778,-0.0054798126220703125
119962866162.06787,d4:ca:6e:f1:7a:a0,-3.6884512901306152,-17.584123611450195,126.71697998046875,-0.010557746514678001,-0.022935278713703156,-0.01268768310546875
119962882574.8,d4:ca:6e:f1:7a:a0,-3.686274528503418,-17.579978942871094,126.70478820800781,-0.016555745154619217,-0.015772191807627678,0.012365341186523438
119962899245.1334,d4:ca:6e:f1:7a:a0,-3.683168411254883,-17.573062896728516,126.69294738769531,-0.012558774091303349,-0.02094361186027527,0.0045757293701171875
119962915915.46681,d4:ca:6e:f1:7a:a0,-3.679633855819702,-17.56631088256836,126.68133544921875,-0.012165502645075321,-0.021901531144976616,-0.02890300750732422
119962932585.80022,d4:ca:6e:f1:7a:a0,-3.6783783435821533,-17.561296463012695,126.67039489746094,-0.026524674147367477,-0.04000088572502136,-0.015636444091796875
119962949256.13362,d4:ca:6e:f1:7a:a0,-3.6775219440460205,-17.559406280517578,126.66085815429688,-0.010747034102678299,-0.04743274673819542,-0.024997711181640625
119962965926.46703,d4:ca:6e:f1:7a:a0,-3.6756372451782227,-17.555912017822266,126.6479263305664,0.012102584354579449,-0.07098586857318878,-0.014216423034667969
119962982596.80043,d4:ca:6e:f1:7a:a0,-3.6718926429748535,-17.55240821838379,126.63288116455078,0.006169460713863373,-0.0887376070022583,-0.0041370391845703125
119962999267.13383,d4:ca:6e:f1:7a:a0,-3.6690244674682617,-17.54938507080078,126.61792755126953,-0.024656133726239204,-0.07570696622133255,-0.024427413940429688
119963015937.46724,d4:ca:6e:f1:7a:a0,-3.667114019393921,-17.547868728637695,126.6038589477539,-0.055602286010980606,-0.07936213165521622,-0.03337860107421875
119963032607.80064,d4:ca:6e:f1:7a:a0,-3.6665005683898926,-17.54596710205078,126.590087890625,-0.055277157574892044,-0.0711202546954155,-0.011359214782714844
119963049278.13405,d4:ca:6e:f1:7a:a0,-3.6669466495513916,-17.544464111328125,126.57875061035156,-0.034469328820705414,-0.0472693033516407,-0.0260772705078125
119963065948.46745,d4:ca:6e:f1:7a:a0,-3.665494441986084,-17.54380989074707,126.56721496582031,0.01194690726697445,-0.05469401180744171,-0.008353233337402344
119963082618.80086,d4:ca:6e:f1:7a:a0,-3.6647167205810547,-17.54208755493164,126.5544204711914,0.018201274797320366,-0.04145662486553192,-0.011156082153320312
119963099289.13426,d4:ca:6e:f1:7a:a0,-3.6640071868896484,-17.5423583984375,126.54303741455078,-0.009910117834806442,-0.03819003701210022,-0.025895118713378906
119963115959.46767,d4:ca:6e:f1:7a:a0,-3.663604259490967,-17.541261672973633,126.5310287475586,-0.03527079150080681,-0.02557915821671486,-0.015511512756347656
119963132629.80107,d4:ca:6e:f1:7a:a0,-3.66204571723938,-17.53847885131836,126.51984405517578,-0.03147369623184204,-0.030735770240426064,-0.022401809692382812
119963149300.13448,d4:ca:6e:f1:7a:a0,-3.66169810295105,-17.537460327148438,126.50892639160156,0.003173353150486946,-0.06006905063986778,-0.02086162567138672
119963165970.46788,d4:ca:6e:f1:7a:a0,-3.660606622695923,-17.53550910949707,126.49824523925781,0.024202682077884674,-0.06211933493614197,-0.010125160217285156
119963182640.80128,d4:ca:6e:f1:7a:a0,-3.6593520641326904,-17.533601760864258,126.48756408691406,-0.003847635816782713,-0.06779538840055466,-0.0042572021484375
119963199311.13469,d4:ca:6e:f1:7a:a0,-3.6591145992279053,-17.53314971923828,126.47473907470703,-0.017484469339251518,-0.0528348870575428,-0.012231826782226562
119963215981.4681,d4:ca:6e:f1:7a:a0,-3.659740447998047,-17.531646728515625,126.46421813964844,-0.036610305309295654,-0.046400394290685654,-0.014914512634277344
119963232651.8015,d4:ca:6e:f1:7a:a0,-3.658545970916748,-17.53076934814453,126.45147705078125,0.0045434036292135715,-0.050477661192417145,-0.009038925170898438
119963249322.1349,d4:ca:6e:f1:7a:a0,-3.657552719116211,-17.530181884765625,126.43975067138672,-0.006739055272191763,-0.04298081621527672,-0.007320404052734375
119963265992.4683,d4:ca:6e:f1:7a:a0,-3.656506299972534,-17.529069900512695,126.43043518066406,-0.021167738363146782,-0.040640298277139664,-0.014354705810546875
119963282662.80171,d4:ca:6e:f1:7a:a0,-3.6549696922302246,-17.529008865356445,126.4177017211914,-0.018796462565660477,-0.049547456204891205,-0.0074481964111328125
119963299333.13512,d4:ca:6e:f1:7a:a0,-3.6541576385498047,-17.526945114135742,126.40605163574219,-0.024473216384649277,-0.058230210095644,-0.014585494995117188
119963316003.46852,d4:ca:6e:f1:7a:a0,-3.652981996536255,-17.526668548583984,126.39373016357422,-0.012463864870369434,-0.06084821745753288,0.0023708343505859375
119963332673.80193,d4:ca:6e:f1:7a:a0,-3.652543067932129,-17.525747299194336,126.38169860839844,-0.00009331665933132172,-0.07052700221538544,-0.015059471130371094
119963349344.13533,d4:ca:6e:f1:7a:a0,-3.651027202606201,-17.52327537536621,126.3697280883789,-0.02041919343173504,-0.051933348178863525,-0.014947891235351562
119963366014.46873,d4:ca:6e:f1:7a:a0,-3.648467779159546,-17.522464752197266,126.3560562133789,-0.015200138092041016,-0.045566972345113754,-0.009820938110351562
119963382684.80214,d4:ca:6e:f1:7a:a0,-3.6469030380249023,-17.52137565612793,126.34031677246094,-0.015928370878100395,-0.03352241590619087,-0.024628639221191406
119963399355.13554,d4:ca:6e:f1:7a:a0,-3.6462996006011963,-17.52036476135254,126.32801055908203,-0.008367124013602734,-0.04613659530878067,-0.0162506103515625
119963416025.46895,d4:ca:6e:f1:7a:a0,-3.644113779067993,-17.518882751464844,126.3163833618164,-0.00401468388736248,-0.054193008691072464,-0.0023326873779296875
119963432695.80235,d4:ca:6e:f1:7a:a0,-3.6425302028656006,-17.517858505249023,126.30516815185547,-0.0075921486131846905,-0.050845734775066376,-0.017783164978027344
119963449366.13576,d4:ca:6e:f1:7a:a0,-3.6411798000335693,-17.517013549804688,126.29473114013672,-0.002255860483273864,-0.04231631010770798,-0.010498046875
119963466036.46916,d4:ca:6e:f1:7a:a0,-3.639803171157837,-17.516550064086914,126.28189086914062,-0.0062918895855546,-0.047746725380420685,-0.03947639465332031
119963482706.80257,d4:ca:6e:f1:7a:a0,-3.639439105987549,-17.51744842529297,126.26958465576172,-0.01700771600008011,-0.06972084194421768,0.005600929260253906
119963499377.13597,d4:ca:6e:f1:7a:a0,-3.6386680603027344,-17.515262603759766,126.25900268554688,-0.008452701382339,-0.04287213087081909,-0.013195037841796875
119963516047.46938,d4:ca:6e:f1:7a:a0,-3.6357460021972656,-17.513776779174805,126.24700164794922,-0.021864401176571846,-0.03278264403343201,-0.022947311401367188
119963532717.80278,d4:ca:6e:f1:7a:a0,-3.636014223098755,-17.515918731689453,126.23066711425781,-0.007241959683597088,-0.06985578685998917,0.008769989013671875
119963549388.13618,d4:ca:6e:f1:7a:a0,-3.6415464878082275,-17.502864837646484,126.19188690185547,0.025534287095069885,-0.13392795622348785,0.017087936401367188
119963566058.46959,d4:ca:6e:f1:7a:a0,-3.6484339237213135,-17.714027404785156,126.15754699707031,-0.32480013370513916,-0.656207263469696,0.8187179565429688
119963582728.803,d4:ca:6e:f1:7a:a0,-3.648355007171631,-18.793453216552734,126.05426788330078,-0.21530672907829285,-1.5867021083831787,1.595536231994629
119963599399.1364,d4:ca:6e:f1:7a:a0,-3.7250375747680664,-20.833194732666016,125.681640625,-0.06365805119276047,-1.3181571960449219,2.5965137481689453
119963616069.4698,d4:ca:6e:f1:7a:a0,-3.939925193786621,-24.507476806640625,125.3172378540039,0.9656919836997986,-1.656112790107727,3.87888240814209
119963632608.399,d4:ca:6e:f1:7a:a0,-4.509781837463379,-29.216400146484375,125.41006469726562,1.02659010887146,-0.6748700737953186,2.512301445007324
119963649278.7324,d4:ca:6e:f1:7a:a0,-5.358816146850586,-35.74848556518555,126.46894836425781,0.7956289052963257,-1.211310625076294,3.7070493698120117
119963665949.06581,d4:ca:6e:f1:7a:a0,-6.995561599731445,-42.927330017089844,128.89317321777344,-0.7262436151504517,-0.24233129620552063,0.09553718566894531
119963682619.39922,d4:ca:6e:f1:7a:a0,-8.570228576660156,-46.432857513427734,131.4513702392578,-2.056466817855835,4.005814552307129,-9.122176170349121
119963699289.73262,d4:ca:6e:f1:7a:a0,-9.571503639221191,-46.588600158691406,133.23045349121094,4.149216175079346,0.7858919501304626,-2.2099599838256836
119963715960.06602,d4:ca:6e:f1:7a:a0,-10.361445426940918,-46.23686599731445,134.71348571777344,2.0463438034057617,-0.12869328260421753,0.16910171508789062
119963732630.39943,d4:ca:6e:f1:7a:a0,-11.307741165161133,-45.543025970458984,136.27947998046875,0.674150824546814,-0.5837783813476562,1.4007787704467773
119963749300.73283,d4:ca:6e:f1:7a:a0,-12.360647201538086,-44.91810989379883,137.7616729736328,-1.2183356285095215,1.745954155921936,4.4549560546875
119963765971.06624,d4:ca:6e:f1:7a:a0,-12.925725936889648,-44.15084457397461,138.27670288085938,-0.3246874213218689,0.37878841161727905,2.758586883544922
119963782641.39964,d4:ca:6e:f1:7a:a0,-12.956132888793945,-43.331764221191406,138.4722442626953,-0.270253986120224,-1.0946755409240723,4.5390119552612305
119963799311.73305,d4:ca:6e:f1:7a:a0,-12.489057540893555,-42.68240737915039,138.4521942138672,-0.3152351975440979,-1.472400426864624,5.493710517883301
119963815982.06645,d4:ca:6e:f1:7a:a0,-11.578579902648926,-42.470848083496094,138.197265625,-0.7360782027244568,-1.6182332038879395,5.844547271728516
119963832652.39986,d4:ca:6e:f1:7a:a0,-10.237245559692383,-42.804134368896484,137.60504150390625,-0.5756053328514099,-1.2108328342437744,5.547306060791016
119963849322.73326,d4:ca:6e:f1:7a:a0,-8.535313606262207,-43.49140167236328,136.60855102539062,-0.17613011598587036,-1.227573275566101,4.627529144287109
119963865993.06667,d4:ca:6e:f1:7a:a0,-6.550122261047363,-44.322628021240234,135.1769256591797,0.32098907232284546,-1.1415363550186157,3.615102767944336
119963882663.40007,d4:ca:6e:f1:7a:a0,-4.318880558013916,-45.15681457519531,133.3820343017578,0.5924928188323975,-1.1265324354171753,3.0373058319091797
119963899333.73347,d4:ca:6e:f1:7a:a0,-1.9315822124481201,-46.03093719482422,131.43507385253906,0.7852829098701477,-1.2099077701568604,2.868692398071289
119963916004.06688,d4:ca:6e:f1:7a:a0,0.5436397194862366,-46.981266021728516,129.49061584472656,0.9149682521820068,-1.3702917098999023,2.719270706176758
119963932674.40028,d4:ca:6e:f1:7a:a0,3.0901739597320557,-48.05555725097656,127.61629486083984,0.9655974507331848,-1.1760765314102173,2.2910690307617188
119963949344.73369,d4:ca:6e:f1:7a:a0,5.780714511871338,-49.35390853881836,125.7319107055664,0.9843735098838806,-0.9185341000556946,1.8417606353759766
119963966015.0671,d4:ca:6e:f1:7a:a0,8.62452220916748,-50.88663864135742,123.79239654541016,0.8731241226196289,-0.4098851978778839,1.2796173095703125
119963982685.4005,d4:ca:6e:f1:7a:a0,11.656742095947266,-52.546897888183594,121.72596740722656,0.7633753418922424,0.11603786796331406,0.6659517288208008
119963999355.7339,d4:ca:6e:f1:7a:a0,14.859579086303711,-54.33369064331055,119.48238372802734,0.6095681190490723,0.5357194542884827,-0.022070884704589844
119964016026.0673,d4:ca:6e:f1:7a:a0,18.199708938598633,-56.071163177490234,117.0279541015625,0.4293983578681946,0.7188527584075928,-0.8806066513061523
119964032696.40071,d4:ca:6e:f1:7a:a0,21.55736541748047,-57.57753372192383,114.43833923339844,0.14153212308883667,0.9644447565078735,-1.6785173416137695
119964049366.73412,d4:ca:6e:f1:7a:a0,25.086599349975586,-58.98150634765625,111.57327270507812,0.020450569689273834,0.8616597652435303,-2.698180675506592
119964066037.06752,d4:ca:6e:f1:7a:a0,28.87052345275879,-60.23926544189453,108.41348266601562,-0.4274604618549347,0.9666861295700073,-3.794926166534424
119964082707.40092,d4:ca:6e:f1:7a:a0,32.715370178222656,-61.24881362915039,105.22010040283203,-0.9004198908805847,0.7995761036872864,-4.614959239959717
119964099377.73433,d4:ca:6e:f1:7a:a0,36.11568832397461,-61.866058349609375,102.49887084960938,-1.0359160900115967,0.8854478001594543,-5.278158187866211
119964116048.06773,d4:ca:6e:f1:7a:a0,39.13389587402344,-62.322669982910156,100.19236755371094,-1.2886441946029663,0.7866326570510864,-5.844099998474121
119964132718.40114,d4:ca:6e:f1:7a:a0,41.563838958740234,-62.59470748901367,98.47276306152344,-1.6068155765533447,0.8201385736465454,-6.288124084472656
119964149388.73454,d4:ca:6e:f1:7a:a0,43.16176223754883,-62.66131591796875,97.52841186523438,-1.637905478477478,0.5457961559295654,-6.639711380004883
119964166059.06795,d4:ca:6e:f1:7a:a0,44.16983413696289,-62.681884765625,97.08369445800781,-1.7830004692077637,0.1872469186782837,-6.8957719802856445
119964182729.40135,d4:ca:6e:f1:7a:a0,44.38875198364258,-62.49962615966797,97.35364532470703,-1.9775111675262451,-0.07873484492301941,-7.250216484069824
119964199399.73476,d4:ca:6e:f1:7a:a0,43.8934326171875,-62.04579544067383,98.32923889160156,-1.8389010429382324,-0.2690649628639221,-7.278199672698975
119964216070.06816,d4:ca:6e:f1:7a:a0,42.90299987792969,-61.41314697265625,99.83821868896484,-1.6232680082321167,-0.457897812128067,-6.840080261230469
119964232740.40157,d4:ca:6e:f1:7a:a0,41.56821823120117,-60.71024703979492,101.6983871459961,-1.190792202949524,-0.44696053862571716,-6.265355110168457
119964249410.73497,d4:ca:6e:f1:7a:a0,39.986907958984375,-60.084007263183594,103.7680435180664,-0.8560848236083984,-0.29317769408226013,-5.64007568359375
119964266081.06837,d4:ca:6e:f1:7a:a0,38.1780891418457,-59.634220123291016,105.94805908203125,-0.49492841958999634,-0.3476142883300781,-4.956604480743408
119964282751.40178,d4:ca:6e:f1:7a:a0,36.09235763549805,-59.42758560180664,108.21031188964844,-0.115068718791008,-0.4749230146408081,-4.237441539764404
119964299421.73518,d4:ca:6e:f1:7a:a0,33.70012283325195,-59.49747085571289,110.55848693847656,0.08810074627399445,-0.394147664308548,-3.466749668121338
119964316092.06859,d4:ca:6e:f1:7a:a0,30.967548370361328,-59.70545196533203,113.17086029052734,0.2511700689792633,0.10472598671913147,-2.956435203552246
119964332762.402,d4:ca:6e:f1:7a:a0,28.054750442504883,-59.958290100097656,115.9902572631836,0.16896413266658783,0.13318131864070892,-2.377251148223877
119964349432.7354,d4:ca:6e:f1:7a:a0,25.127283096313477,-60.184104919433594,118.89594268798828,0.1994543969631195,-0.0852188989520073,-1.9460883140563965
119964366103.0688,d4:ca:6e:f1:7a:a0,22.19310760498047,-60.2570915222168,121.84380340576172,0.015053038485348225,-0.24638648331165314,-1.3362064361572266
119964382603.6,d4:ca:6e:f1:7a:a0,19.21109962463379,-60.04468536376953,124.85531616210938,-0.00897521898150444,-0.32409411668777466,-0.6427726745605469
119964399273.93341,d4:ca:6e:f1:7a:a0,16.330196380615234,-59.611331939697266,127.78585052490234,0.08509001135826111,-0.2991183400154114,0.017826080322265625
119964415944.26682,d4:ca:6e:f1:7a:a0,13.615311622619629,-59.11068344116211,130.54115295410156,0.1293027251958847,-0.2438144087791443,0.8878030776977539
119964432614.60022,d4:ca:6e:f1:7a:a0,11.027801513671875,-58.596256256103516,133.14990234375,0.07186799496412277,0.09475082904100418,1.4176139831542969
119964449284.93362,d4:ca:6e:f1:7a:a0,8.55583381652832,-58.168731689453125,135.62022399902344,0.05101213976740837,0.021984286606311798,2.0203466415405273
119964465955.26703,d4:ca:6e:f1:7a:a0,6.149593353271484,-57.67844009399414,137.9957275390625,-0.004533625207841396,0.4310838580131531,2.0267162322998047
119964482625.60043,d4:ca:6e:f1:7a:a0,4.011196136474609,-57.03413772583008,140.11083984375,-0.028536736965179443,0.20814666152000427,2.4818553924560547
119964499295.93384,d4:ca:6e:f1:7a:a0,2.1259093284606934,-56.342254638671875,142.01272583007812,0.03555423393845558,0.24117137491703033,2.8939123153686523
119964515966.26724,d4:ca:6e:f1:7a:a0,0.5115854740142822,-55.59175109863281,143.70672607421875,0.1536092758178711,0.44383370876312256,3.0218467712402344
119964532636.60065,d4:ca:6e:f1:7a:a0,-0.7253919243812561,-54.88780212402344,145.13169860839844,-0.091606006026268,0.10838210582733154,2.996612548828125
119964549306.93405,d4:ca:6e:f1:7a:a0,-1.6162848472595215,-54.223175048828125,146.30523681640625,-0.20696768164634705,-0.06269493699073792,2.829066276550293
119964565977.26746,d4:ca:6e:f1:7a:a0,-2.185840606689453,-53.5803108215332,147.2515869140625,-0.16291926801204681,-0.22014965116977692,2.619736671447754
119964582647.60086,d4:ca:6e:f1:7a:a0,-2.4479074478149414,-53.016510009765625,147.99668884277344,-0.025685550644993782,-0.16536806523799896,2.236196517944336
119964599317.93427,d4:ca:6e:f1:7a:a0,-2.4460556507110596,-52.4103889465332,148.54733276367188,0.02718697115778923,-0.08625532686710358,1.738154411315918
119964615988.26767,d4:ca:6e:f1:7a:a0,-2.2894785404205322,-51.7298469543457,148.9749298095703,0.09170418232679367,-0.035156577825546265,1.422154426574707
119964632658.60107,d4:ca:6e:f1:7a:a0,-2.0765509605407715,-51.087989807128906,149.37619018554688,0.18142329156398773,0.06384357064962387,1.2568798065185547
119964649328.93448,d4:ca:6e:f1:7a:a0,-1.9020311832427979,-50.55883026123047,149.810791015625,0.1478344351053238,0.001565819955430925,1.1393699645996094
119964665999.26788,d4:ca:6e:f1:7a:a0,-1.7748949527740479,-50.12204360961914,150.28343200683594,0.01653984747827053,-0.07793717831373215,0.804203987121582
119964682409.599,d4:ca:6e:f1:7a:a0,-1.621313214302063,-49.71745300292969,150.72198486328125,-0.016366345807909966,-0.044134195894002914,0.5213041305541992
119964699079.9324,d4:ca:6e:f1:7a:a0,-1.3879393339157104,-49.29832458496094,151.09713745117188,0.018131203949451447,0.08149461448192596,0.36023521423339844
119964715750.26581,d4:ca:6e:f1:7a:a0,-1.0911831855773926,-48.869712829589844,151.41644287109375,0.043657250702381134,0.22594521939754486,0.30364036560058594
119964732420.59921,d4:ca:6e:f1:7a:a0,-0.7874388098716736,-48.35415267944336,151.6742401123047,0.2707439959049225,0.5671111941337585,0.4384164810180664
119964749090.93262,d4:ca:6e:f1:7a:a0,-0.5209553837776184,-47.8887939453125,151.90447998046875,0.21123389899730682,0.5234890580177307,0.7358360290527344
119964765761.26602,d4:ca:6e:f1:7a:a0,-0.21800103783607483,-47.544921875,152.0933380126953,0.1631067395210266,0.5860067009925842,0.6746978759765625
119964782431.59943,d4:ca:6e:f1:7a:a0,0.19354043900966644,-47.289546966552734,152.20919799804688,0.09783002734184265,0.37614497542381287,0.4424142837524414
119964799101.93283,d4:ca:6e:f1:7a:a0,0.7378302812576294,-46.986167907714844,152.22216796875,0.05840808525681496,0.36889395117759705,0.11932086944580078
119964815772.26624,d4:ca:6e:f1:7a:a0,1.4247171878814697,-46.569705963134766,152.12689208984375,0.025362979620695114,0.4107878804206848,-0.1349353790283203
119964832442.59964,d4:ca:6e:f1:7a:a0,2.211392879486084,-46.113006591796875,151.97866821289062,-0.01075121108442545,0.6135013103485107,-0.11994266510009766
119964849112.93304,d4:ca:6e:f1:7a:a0,2.9894590377807617,-45.69693374633789,151.84768676757812,-0.13271772861480713,0.7834693789482117,-0.10091876983642578
119964865783.26645,d4:ca:6e:f1:7a:a0,3.668483018875122,-45.417510986328125,151.7892608642578,-0.20966599881649017,1.0060123205184937,-0.09432411193847656
119964882453.59985,d4:ca:6e:f1:7a:a0,4.20360803604126,-45.35954666137695,151.7943572998047,-0.22513999044895172,1.0770668983459473,-0.2179851531982422
119964899123.93326,d4:ca:6e:f1:7a:a0,4.572470188140869,-45.39335632324219,151.83253479003906,-0.35729387402534485,0.9785494208335876,-0.2945089340209961
119964915794.26666,d4:ca:6e:f1:7a:a0,4.788735389709473,-45.404014587402344,151.87060546875,-0.4662024676799774,0.6453465223312378,-0.32530975341796875
119964932464.60007,d4:ca:6e:f1:7a:a0,4.925947666168213,-45.32402420043945,151.86497497558594,-0.33047303557395935,0.5375001430511475,-0.2204875946044922
119964949134.93347,d4:ca:6e:f1:7a:a0,4.998415946960449,-45.29064178466797,151.84996032714844,-0.22813844680786133,0.420934796333313,-0.0892324447631836
119964965805.26688,d4:ca:6e:f1:7a:a0,4.951512336730957,-45.30706024169922,151.8977508544922,-0.25977858901023865,0.26425427198410034,-0.18495845794677734
119964982475.60028,d4:ca:6e:f1:7a:a0,4.784756183624268,-45.305606842041016,152.04257202148438,-0.21573969721794128,0.11315929889678955,-0.12392044067382812
119964999145.93369,d4:ca:6e:f1:7a:a0,4.604267597198486,-45.35513687133789,152.2257843017578,-0.29690414667129517,-0.06083447113633156,-0.03306293487548828
119965015816.26709,d4:ca:6e:f1:7a:a0,4.4426164627075195,-45.3852653503418,152.44815063476562,-0.199276864528656,-0.0013341488083824515,0.1168670654296875
119965032486.6005,d4:ca:6e:f1:7a:a0,4.284972190856934,-45.345977783203125,152.74444580078125,-0.38485634326934814,-0.18780972063541412,0.49534130096435547
119965049156.9339,d4:ca:6e:f1:7a:a0,4.196108341217041,-45.431884765625,153.08920288085938,-0.11017298698425293,-0.07789471000432968,0.7464656829833984
119965065827.2673,d4:ca:6e:f1:7a:a0,4.229224681854248,-45.68016052246094,153.41671752929688,-0.10105425119400024,0.09509308636188507,0.5513687133789062
119965082497.60071,d4:ca:6e:f1:7a:a0,4.310064315795898,-45.88629913330078,153.73121643066406,0.003963666968047619,0.05968840792775154,0.30863475799560547
119965099167.93411,d4:ca:6e:f1:7a:a0,4.3453264236450195,-46.17380142211914,154.07579040527344,0.2619105279445648,0.17195242643356323,0.2596454620361328
119965115838.26752,d4:ca:6e:f1:7a:a0,4.233902931213379,-46.584716796875,154.52706909179688,0.554996132850647,0.5923255085945129,0.1778240203857422
119965132508.60092,d4:ca:6e:f1:7a:a0,3.912698984146118,-47.16563034057617,155.10450744628906,0.970282256603241,0.9190568923950195,0.05083656311035156
119965149178.93433,d4:ca:6e:f1:7a:a0,3.3632760047912598,-47.714073181152344,155.7841796875,1.1084126234054565,1.2952772378921509,-0.27264881134033203
119965165849.26773,d4:ca:6e:f1:7a:a0,2.5468578338623047,-48.22699737548828,156.5877685546875,1.3645012378692627,1.2456363439559937,-0.418365478515625
119965182519.60114,d4:ca:6e:f1:7a:a0,1.449733018875122,-48.798858642578125,157.56521606445312,1.4595686197280884,1.2733055353164673,-0.6257085800170898
119965199189.93454,d4:ca:6e:f1:7a:a0,0.9170252680778503,-48.80241012573242,158.70980834960938,5.856896877288818,3.8755249977111816,2.5164575576782227
119965215860.26794,d4:ca:6e:f1:7a:a0,1.4186064004898071,-48.97108459472656,159.82525634765625,1.443041443824768,1.7818971872329712,0.27284717559814453
119965232530.60135,d4:ca:6e:f1:7a:a0,2.0497078895568848,-48.716209411621094,160.91195678710938,-0.8204384446144104,0.8919537663459778,-1.3739843368530273
119965249200.93475,d4:ca:6e:f1:7a:a0,1.8156721591949463,-46.939327239990234,161.4674072265625,-1.5628843307495117,3.4098219871520996,-3.6843152046203613
119965265871.26816,d4:ca:6e:f1:7a:a0,1.8246707916259766,-45.55780792236328,161.60606384277344,1.0669561624526978,0.686433732509613,-1.4073858261108398
119965282541.60156,d4:ca:6e:f1:7a:a0,2.147662401199341,-45.187522888183594,161.50405883789062,0.3237829804420471,-3.4735774993896484,-0.9646406173706055
119965299211.93497,d4:ca:6e:f1:7a:a0,2.5065414905548096,-45.43294906616211,161.28074645996094,1.7060596942901611,-1.5873547792434692,-0.49624061584472656
119965315882.26837,d4:ca:6e:f1:7a:a0,3.1427600383758545,-46.938777923583984,160.38731384277344,3.497044563293457,-1.3274240493774414,-0.03287220001220703
119965332552.60178,d4:ca:6e:f1:7a:a0,3.847209930419922,-48.866756439208984,158.93959045410156,1.302026391029358,-0.9785367250442505,-0.5358371734619141
119965349222.93518,d4:ca:6e:f1:7a:a0,4.922662734985352,-50.446990966796875,157.0176239013672,-0.0059338780120015144,-0.48766303062438965,-1.4994945526123047
119965365893.26859,d4:ca:6e:f1:7a:a0,6.5510478019714355,-52.116878509521484,154.4834747314453,-0.3772871196269989,0.02588973008096218,-1.5643157958984375
119965382563.60199,d4:ca:6e:f1:7a:a0,8.109878540039062,-53.55922317504883,151.92759704589844,-1.1066817045211792,-0.27811968326568604,1.2933015823364258
119965399233.9354,d4:ca:6e:f1:7a:a0,8.979376792907715,-54.433837890625,150.1402130126953,-2.5064027309417725,1.5283887386322021,3.5256528854370117
119965415904.2688,d4:ca:6e:f1:7a:a0,8.901247024536133,-54.76926803588867,149.6542510986328,-3.7404134273529053,2.191528797149658,2.570707321166992
119965432529.999,d4:ca:6e:f1:7a:a0,8.472685813903809,-55.00441360473633,149.7318878173828,-1.7092347145080566,1.4114100933074951,0.97503662109375
119965449200.3324,d4:ca:6e:f1:7a:a0,8.141162872314453,-54.757747650146484,149.82130432128906,-1.866883635520935,1.152338981628418,-0.2970571517944336
119965465870.6658,d4:ca:6e:f1:7a:a0,7.783106327056885,-54.457271575927734,150.00123596191406,-1.9758905172348022,1.6274268627166748,0.9710206985473633
119965482540.9992,d4:ca:6e:f1:7a:a0,7.4391398429870605,-53.9158935546875,150.40455627441406,-2.5475761890411377,1.8279423713684082,-0.3049125671386719
119965499211.33261,d4:ca:6e:f1:7a:a0,7.472753047943115,-53.0875244140625,150.6687774658203,-1.3981961011886597,1.5014433860778809,-1.5525760650634766
119965515881.66602,d4:ca:6e:f1:7a:a0,7.699800491333008,-52.36555480957031,150.737548828125,0.28607967495918274,0.9827804565429688,-0.6223478317260742
119965532551.99942,d4:ca:6e:f1:7a:a0,7.919084548950195,-51.55070877075195,150.8702392578125,-1.0487267971038818,1.014471411705017,0.10826969146728516
119965549222.33282,d4:ca:6e:f1:7a:a0,7.834816932678223,-50.72439956665039,151.30593872070312,-0.4253618121147156,0.35495102405548096,1.3390073776245117
119965565892.66623,d4:ca:6e:f1:7a:a0,7.2742695808410645,-50.160152435302734,152.02059936523438,0.5270512700080872,0.30649325251579285,1.9656944274902344
119965582091.8,d4:ca:6e:f1:7a:a0,6.351330280303955,-49.72519302368164,152.91970825195312,1.2699849605560303,0.3201163709163666,1.477055549621582
119965598762.1334,d4:ca:6e:f1:7a:a0,5.30051851272583,-49.551212310791016,153.9494171142578,0.559550404548645,1.2632205486297607,1.3879098892211914
119965615432.46681,d4:ca:6e:f1:7a:a0,4.30356502532959,-49.54976272583008,155.08531188964844,0.08492441475391388,0.49736788868904114,1.1631927490234375
119965632102.80022,d4:ca:6e:f1:7a:a0,3.342177391052246,-49.72989273071289,156.26141357421875,0.640754222869873,0.00088192627299577,0.9339542388916016
119965648773.13362,d4:ca:6e:f1:7a:a0,2.555537223815918,-50.063167572021484,157.26348876953125,1.1409515142440796,-0.08992278575897217,0.28789234161376953
119965665443.46703,d4:ca:6e:f1:7a:a0,1.9325491189956665,-50.146724700927734,158.03651428222656,-0.05049688369035721,-1.5508878231048584,-0.1986379623413086
119965682113.80043,d4:ca:6e:f1:7a:a0,1.670607566833496,-50.14930725097656,158.40403747558594,-1.9257118701934814,-0.8862611651420593,-0.0775442123413086
119965698784.13383,d4:ca:6e:f1:7a:a0,1.7702163457870483,-49.86513137817383,158.55284118652344,0.8209166526794434,13.707316398620605,-0.9572429656982422
119965715454.46724,d4:ca:6e:f1:7a:a0,2.6396100521087646,-50.089012145996094,158.0738525390625,-1.1559699773788452,9.921558380126953,-3.4787397384643555
119965732124.80064,d4:ca:6e:f1:7a:a0,3.5264382362365723,-50.19414138793945,157.5697784423828,-0.17103643715381622,6.132133483886719,0.04830741882324219
119965748795.13405,d4:ca:6e:f1:7a:a0,4.108494281768799,-51.03343963623047,157.00631713867188,1.3045213222503662,2.7466232776641846,0.19571876525878906
119965765465.46745,d4:ca:6e:f1:7a:a0,4.379671096801758,-51.37238311767578,156.61082458496094,1.8313384056091309,0.17965982854366302,-1.2844905853271484
119965782135.80086,d4:ca:6e:f1:7a:a0,4.350160121917725,-51.36403274536133,156.44215393066406,0.1917089819908142,-3.7029330730438232,-0.1715707778930664
119965798806.13426,d4:ca:6e:f1:7a:a0,4.119926452636719,-50.971275329589844,156.427734375,0.6696521043777466,-6.4514384269714355,0.09144973754882812
119965815476.46767,d4:ca:6e:f1:7a:a0,3.8172125816345215,-50.26921081542969,156.5504913330078,1.67727792263031,-5.287858486175537,-1.2095661163330078
119965832146.80107,d4:ca:6e:f1:7a:a0,3.6347010135650635,-49.102630615234375,156.5201416015625,-1.0553141832351685,-3.901956081390381,-0.4546689987182617
119965848817.13448,d4:ca:6e:f1:7a:a0,3.4619414806365967,-48.360530853271484,156.77308654785156,-1.8505134582519531,-2.4315202236175537,1.2352800369262695
119965865487.46788,d4:ca:6e:f1:7a:a0,3.331214189529419,-47.88117980957031,157.1562042236328,-2.114241123199463,-0.16722959280014038,0.733576774597168
119965882157.80128,d4:ca:6e:f1:7a:a0,3.1648528575897217,-47.84113693237305,157.4163360595703,0.06848619133234024,1.702358365058899,0.5245552062988281
119965898828.13469,d4:ca:6e:f1:7a:a0,3.1147077083587646,-47.956024169921875,157.4550323486328,0.45430803298950195,2.192570686340332,-0.73687744140625
119965915498.4681,d4:ca:6e:f1:7a:a0,3.007810592651367,-47.87334060668945,157.47235107421875,0.30002638697624207,2.6848573684692383,0.3971099853515625
119965932168.8015,d4:ca:6e:f1:7a:a0,2.8782055377960205,-48.14780044555664,157.40396118164062,0.27056917548179626,2.9497992992401123,1.64593505859375
119965948839.1349,d4:ca:6e:f1:7a:a0,2.712230682373047,-48.55837631225586,157.2247772216797,-0.6241668462753296,3.2703440189361572,1.5654773712158203
119965965509.4683,d4:ca:6e:f1:7a:a0,2.900761365890503,-48.84869384765625,156.62042236328125,1.8642610311508179,2.6109578609466553,2.5775232315063477
119965982179.80171,d4:ca:6e:f1:7a:a0,3.241401433944702,-49.185516357421875,155.71092224121094,0.5727787017822266,2.1514945030212402,0.5866918563842773
119965998850.13512,d4:ca:6e:f1:7a:a0,3.5801069736480713,-49.617740631103516,154.5725860595703,-0.39057931303977966,3.1583592891693115,-0.6502313613891602
119966015520.46852,d4:ca:6e:f1:7a:a0,3.973115921020508,-51.13396453857422,153.30465698242188,2.0042450428009033,1.9455188512802124,0.32160377502441406
119966032190.80193,d4:ca:6e:f1:7a:a0,4.157498836517334,-52.65378952026367,152.31985473632812,-0.4683624505996704,1.5224297046661377,-1.5830211639404297
119966048861.13533,d4:ca:6e:f1:7a:a0,4.231017112731934,-53.95512771606445,151.2566375732422,-0.4263986647129059,0.31377166509628296,-1.8701086044311523
119966065531.46873,d4:ca:6e:f1:7a:a0,3.9751269817352295,-54.77385711669922,150.21969604492188,-0.7894020080566406,-1.3222732543945312,-1.4248838424682617
119966082201.80214,d4:ca:6e:f1:7a:a0,3.23002028465271,-55.431949615478516,149.533935546875,-0.6419268250465393,-2.3990061283111572,-0.5687274932861328
119966098872.13554,d4:ca:6e:f1:7a:a0,2.27655029296875,-56.2395133972168,149.14913940429688,-0.6075968742370605,-2.500662088394165,-0.37494945526123047
119966115542.46895,d4:ca:6e:f1:7a:a0,1.3995652198791504,-57.04981994628906,148.8837890625,-0.4989696443080902,-2.64487624168396,-0.20818138122558594
119966132212.80235,d4:ca:6e:f1:7a:a0,0.7662226557731628,-57.71072006225586,148.58216857910156,-0.6637227535247803,-2.6820664405822754,-0.31197166442871094
119966148883.13576,d4:ca:6e:f1:7a:a0,0.37570032477378845,-58.35520935058594,148.2342529296875,-0.5534975528717041,-2.981515407562256,-0.453521728515625
119966165553.46916,d4:ca:6e:f1:7a:a0,0.03099619224667549,-58.938175201416016,148.03211975097656,-0.6517801284790039,-3.131986141204834,-0.5211353302001953
119966182223.80257,d4:ca:6e:f1:7a:a0,-0.2900441586971283,-59.437992095947266,148.06771850585938,-0.5052092671394348,-3.096994638442993,-0.3151569366455078
119966198894.13597,d4:ca:6e:f1:7a:a0,-0.5756653547286987,-59.92453384399414,148.37255859375,-0.5959210991859436,-2.686711072921753,-0.021528244018554688
119966215564.46938,d4:ca:6e:f1:7a:a0,-0.7488003373146057,-60.507076263427734,148.79624938964844,-0.6585273742675781,-2.120713710784912,0.012301445007324219
119966232234.80278,d4:ca:6e:f1:7a:a0,-0.7964588403701782,-61.210086822509766,149.20077514648438,-0.8582069277763367,-1.6977808475494385,-0.13818645477294922
119966248905.13618,d4:ca:6e:f1:7a:a0,-0.9474714994430542,-61.98009490966797,149.66439819335938,-0.9676378965377808,-1.4683818817138672,-0.1352863311767578
119966265575.46959,d4:ca:6e:f1:7a:a0,-1.2729923725128174,-62.70728302001953,150.15447998046875,-0.6824950575828552,-1.0605978965759277,-0.3211212158203125
119966282245.803,d4:ca:6e:f1:7a:a0,-1.6894091367721558,-63.2241325378418,150.58750915527344,-0.27871379256248474,-0.6893676519393921,-0.22224998474121094
119966298916.1364,d4:ca:6e:f1:7a:a0,-2.221738576889038,-63.594505310058594,151.07962036132812,0.33319273591041565,-0.2988063097000122,0.04625511169433594
119966315586.4698,d4:ca:6e:f1:7a:a0,-2.907421588897705,-64.02442169189453,151.7757568359375,0.5119264125823975,0.2819734513759613,0.24727535247802734
119966332256.8032,d4:ca:6e:f1:7a:a0,-3.7135112285614014,-64.52749633789062,152.651123046875,0.4167603850364685,0.6497883200645447,0.10147476196289062
119966348927.13661,d4:ca:6e:f1:7a:a0,-4.693795680999756,-65.0744857788086,153.67152404785156,0.15030106902122498,0.7251116037368774,0.036667823791503906
119966365597.47002,d4:ca:6e:f1:7a:a0,-5.92875337600708,-65.66996765136719,154.8651123046875,0.034877240657806396,0.8315989375114441,0.03353118896484375
119966382267.80342,d4:ca:6e:f1:7a:a0,-7.3038554191589355,-66.23429870605469,156.08033752441406,0.03007769212126732,1.1084879636764526,-0.21174144744873047
119966398938.13683,d4:ca:6e:f1:7a:a0,-8.648560523986816,-66.65657043457031,157.1488037109375,0.03008093312382698,1.0039671659469604,-0.2708454132080078
119966415608.47023,d4:ca:6e:f1:7a:a0,-10.023359298706055,-66.99052429199219,158.1988983154297,-0.05295896530151367,0.8401621580123901,-0.28636932373046875
119966432278.80363,d4:ca:6e:f1:7a:a0,-11.394222259521484,-67.26797485351562,159.25828552246094,-0.00674455938860774,0.6867243051528931,-0.33908557891845703
119966448949.13704,d4:ca:6e:f1:7a:a0,-12.612503051757812,-67.45169830322266,160.24871826171875,-0.03911462798714638,0.725314736366272,-0.35975074768066406
119966465619.47044,d4:ca:6e:f1:7a:a0,-13.486007690429688,-67.59771728515625,161.03912353515625,-0.00309587805531919,0.7376944422721863,-0.34030628204345703
119966482289.80385,d4:ca:6e:f1:7a:a0,-14.024141311645508,-67.64506530761719,161.6376190185547,-0.12403183430433273,0.7411692142486572,-0.20647335052490234
119966498960.13725,d4:ca:6e:f1:7a:a0,-14.261155128479004,-67.58589172363281,162.0118865966797,-0.1013987734913826,0.6304877400398254,-0.08381366729736328
119966515630.47066,d4:ca:6e:f1:7a:a0,-14.343158721923828,-67.56568145751953,162.24954223632812,-0.16265743970870972,0.7182985544204712,0.051860809326171875
119966532300.80406,d4:ca:6e:f1:7a:a0,-14.173063278198242,-67.51399230957031,162.2456512451172,-0.1717260330915451,0.9350444078445435,0.14276504516601562
119966548971.13747,d4:ca:6e:f1:7a:a0,-13.612977027893066,-67.38436889648438,161.87640380859375,-0.030354373157024384,1.2978650331497192,0.2080078125
119966565641.47087,d4:ca:6e:f1:7a:a0,-12.715136528015137,-67.23124694824219,161.18170166015625,-0.05496063455939293,1.2964130640029907,0.30203914642333984
119966582311.80428,d4:ca:6e:f1:7a:a0,-11.6939697265625,-67.0782699584961,160.32009887695312,-0.1644815057516098,1.2248643636703491,0.28488636016845703
119966598982.13768,d4:ca:6e:f1:7a:a0,-10.634636878967285,-66.90565490722656,159.30116271972656,0.04963921010494232,1.0984212160110474,0.13291072845458984
119966615652.47108,d4:ca:6e:f1:7a:a0,-9.672072410583496,-66.6959228515625,158.2338104248047,0.1369350105524063,0.9745004773139954,-0.02259349822998047
119966632322.80449,d4:ca:6e:f1:7a:a0,-8.91592025756836,-66.42233276367188,157.26087951660156,0.39476627111434937,0.7988897562026978,-0.058722496032714844
119966648993.1379,d4:ca:6e:f1:7a:a0,-8.430276870727539,-66.16412353515625,156.53631591796875,0.5769491195678711,0.7015376687049866,0.06736278533935547
119966665663.4713,d4:ca:6e:f1:7a:a0,-8.14789867401123,-66.03630065917969,156.05471801757812,0.5954861640930176,0.629004180431366,0.05122089385986328
119966682333.8047,d4:ca:6e:f1:7a:a0,-8.01653003692627,-65.97069549560547,155.77066040039062,0.4523046612739563,0.5142085552215576,0.059554100036621094
119966699004.1381,d4:ca:6e:f1:7a:a0,-7.964947700500488,-65.92184448242188,155.61871337890625,0.4336942434310913,0.4627174735069275,-0.02032756805419922
119966715674.47151,d4:ca:6e:f1:7a:a0,-7.898499965667725,-65.87779998779297,155.5131378173828,0.2626752555370331,0.4003561735153198,0.0037641525268554688
119966732344.80492,d4:ca:6e:f1:7a:a0,-7.799219608306885,-65.83631896972656,155.4303436279297,0.245859757065773,0.2762112617492676,-0.026528358459472656
119966749015.13832,d4:ca:6e:f1:7a:a0,-7.707050800323486,-65.83078002929688,155.3935089111328,0.19220790266990662,0.16957804560661316,-0.038512229919433594
119966765685.47173,d4:ca:6e:f1:7a:a0,-7.643198013305664,-65.80940246582031,155.3895263671875,0.18290956318378448,0.20953144133090973,-0.10601520538330078
119966782355.80513,d4:ca:6e:f1:7a:a0,-7.610107421875,-65.74888610839844,155.40284729003906,0.3341531455516815,0.10895932465791702,-0.11249637603759766
119966799026.13853,d4:ca:6e:f1:7a:a0,-7.645234107971191,-65.70646667480469,155.45230102539062,0.5082162618637085,0.019049786031246185,-0.056880950927734375
119966815696.47194,d4:ca:6e:f1:7a:a0,-7.733409881591797,-65.67691040039062,155.56414794921875,0.4931279122829437,0.06380099058151245,0.05003547668457031
119966832366.80534,d4:ca:6e:f1:7a:a0,-7.8232741355896,-65.68692779541016,155.71153259277344,0.5243046879768372,0.07176990061998367,0.17010879516601562
119966849037.13875,d4:ca:6e:f1:7a:a0,-7.836110591888428,-65.75978088378906,155.7908172607422,0.6562114357948303,0.14753319323062897,0.14677047729492188
119966865707.47215,d4:ca:6e:f1:7a:a0,-7.643330097198486,-65.81304168701172,155.6680450439453,0.562969446182251,0.38325297832489014,0.1461353302001953
119966882377.80556,d4:ca:6e:f1:7a:a0,-7.247055530548096,-65.85687255859375,155.36868286132812,0.6291618347167969,0.4017591178417206,0.16614151000976562
119966899048.13896,d4:ca:6e:f1:7a:a0,-6.675306797027588,-65.84266662597656,154.91111755371094,0.601885199546814,0.4914720356464386,0.02339458465576172
119966915718.47237,d4:ca:6e:f1:7a:a0,-5.991177082061768,-65.74862670898438,154.3529052734375,0.5209327936172485,0.46793052554130554,-0.12806224822998047
119966932293.2,d4:ca:6e:f1:7a:a0,-5.291262149810791,-65.63482666015625,153.7894287109375,0.42131224274635315,0.40246161818504333,-0.3017234802246094
119966948963.5334,d4:ca:6e:f1:7a:a0,-4.6894450187683105,-65.52884674072266,153.3314971923828,0.23844976723194122,0.25276443362236023,-0.4004688262939453
119966965633.8668,d4:ca:6e:f1:7a:a0,-4.247719764709473,-65.47359466552734,153.05075073242188,0.04076281189918518,0.23690417408943176,-0.46060943603515625
119966982304.20021,d4:ca:6e:f1:7a:a0,-3.8873910903930664,-65.35694122314453,152.86692810058594,-0.20940420031547546,0.2729305624961853,-0.5873098373413086
119966998974.53362,d4:ca:6e:f1:7a:a0,-3.6196951866149902,-65.18962860107422,152.76417541503906,-0.3288086950778961,-0.09826110303401947,-0.5683212280273438
119967015644.86702,d4:ca:6e:f1:7a:a0,-3.5610783100128174,-65.11627197265625,152.8548126220703,-0.5050839185714722,-0.4532845616340637,-0.48177146911621094
119967032315.20042,d4:ca:6e:f1:7a:a0,-3.806389808654785,-65.0996322631836,153.24424743652344,-0.6570963859558105,-0.7463768720626831,-0.2656135559082031
119967048985.53383,d4:ca:6e:f1:7a:a0,-4.2773613929748535,-65.13922119140625,153.88755798339844,-0.6933160424232483,-0.8762707114219666,0.020555496215820312
119967065655.86723,d4:ca:6e:f1:7a:a0,-4.846659183502197,-65.27539825439453,154.67294311523438,-0.5748047232627869,-0.9898259043693542,0.2596015930175781
119967082326.20064,d4:ca:6e:f1:7a:a0,-5.421760559082031,-65.4906997680664,155.49412536621094,-0.353012353181839,-0.9394412636756897,0.3308839797973633
119967098996.53404,d4:ca:6e:f1:7a:a0,-6.026788234710693,-65.86164855957031,156.3796844482422,0.007213741075247526,-0.8694496750831604,0.43935394287109375
119967115666.86745,d4:ca:6e:f1:7a:a0,-6.746084213256836,-66.4559555053711,157.40036010742188,0.19849537312984467,-0.6480668783187866,0.48734283447265625
119967132337.20085,d4:ca:6e:f1:7a:a0,-7.501813888549805,-67.12498474121094,158.400390625,0.45588791370391846,-0.35522645711898804,0.2778472900390625
119967149007.53426,d4:ca:6e:f1:7a:a0,-8.232945442199707,-67.75758361816406,159.270263671875,0.748927652835846,-0.27092498540878296,0.180084228515625
119967165677.86766,d4:ca:6e:f1:7a:a0,-8.994498252868652,-68.26209259033203,160.12246704101562,0.932398796081543,0.10717211663722992,0.24935245513916016
119967182348.20107,d4:ca:6e:f1:7a:a0,-9.76191520690918,-68.80496978759766,161.00015258789062,1.1988210678100586,0.28229227662086487,0.45878124237060547
119967199018.53447,d4:ca:6e:f1:7a:a0,-10.679901123046875,-69.52013397216797,162.05905151367188,1.0687477588653564,0.5270265936851501,0.545933723449707
119967215688.86787,d4:ca:6e:f1:7a:a0,-11.692512512207031,-70.29676055908203,163.20822143554688,1.0011106729507446,0.7499526143074036,0.5121259689331055
119967232359.20128,d4:ca:6e:f1:7a:a0,-12.736555099487305,-71.1567611694336,164.39263916015625,0.5877382159233093,0.7927849888801575,0.29317760467529297
119967249029.53468,d4:ca:6e:f1:7a:a0,-13.61373519897461,-72.04708862304688,165.37718200683594,0.3972538113594055,0.5442699790000916,-0.19197368621826172
119967265699.86809,d4:ca:6e:f1:7a:a0,-14.36263656616211,-72.97432708740234,166.15292358398438,0.18623800575733185,-0.004829947371035814,-0.5150413513183594
119967282370.20149,d4:ca:6e:f1:7a:a0,-15.268553733825684,-73.85746765136719,166.96388244628906,0.11071571707725525,-0.09734252095222473,-0.7575702667236328
119967299040.5349,d4:ca:6e:f1:7a:a0,-16.062692642211914,-74.47044372558594,167.5792999267578,0.2670164108276367,0.23747345805168152,-0.7749567031860352
119967315710.8683,d4:ca:6e:f1:7a:a0,-16.903568267822266,-75.0682144165039,168.31890869140625,0.39904630184173584,0.27760565280914307,-0.31833362579345703
119967332381.2017,d4:ca:6e:f1:7a:a0,-18.12578010559082,-75.87860870361328,169.6084442138672,0.1646282970905304,0.49547430872917175,-0.1353473663330078
119967349051.53511,d4:ca:6e:f1:7a:a0,-19.53938865661621,-76.90729522705078,171.1742706298828,0.07151703536510468,0.5369501709938049,-0.4756650924682617
119967365721.86852,d4:ca:6e:f1:7a:a0,-21.31177520751953,-78.05933380126953,173.06100463867188,-0.24329812824726105,-0.02418220229446888,-0.5368003845214844
119967382392.20192,d4:ca:6e:f1:7a:a0,-24.04804801940918,-79.25944519042969,175.84323120117188,0.07323767989873886,-0.2231944501399994,-0.42363739013671875
119967399062.53532,d4:ca:6e:f1:7a:a0,-29.185245513916016,-80.69232940673828,-178.8249969482422,0.34210243821144104,0.16988548636436462,0.007271766662597656
119967415732.86873,d4:ca:6e:f1:7a:a0,-38.17518615722656,-82.2587661743164,-169.38470458984375,0.13393662869930267,0.9221288561820984,-0.13473892211914062
119967432403.20213,d4:ca:6e:f1:7a:a0,-47.70383071899414,-83.24038696289062,-159.41709899902344,-0.3600694239139557,1.0994219779968262,-0.37156009674072266
119967449073.53554,d4:ca:6e:f1:7a:a0,-55.79878234863281,-83.7391586303711,-151.03977966308594,-0.5406819581985474,0.7985081076622009,0.059864044189453125
119967465743.86894,d4:ca:6e:f1:7a:a0,-63.752105712890625,-84.09478759765625,-142.87863159179688,-0.2265266478061676,1.0099942684173584,0.29302024841308594
119967482414.20235,d4:ca:6e:f1:7a:a0,-74.69384002685547,-84.48871612548828,-131.73793029785156,-0.24529023468494415,0.9222972989082336,0.16415977478027344
119967499084.53575,d4:ca:6e:f1:7a:a0,-88.64414978027344,-84.66608428955078,-117.70077514648438,-0.2695496082305908,0.36812901496887207,-0.17639732360839844
119967515754.86916,d4:ca:6e:f1:7a:a0,-102.1568603515625,-84.4908218383789,-104.21338653564453,-0.1484481245279312,0.625332236289978,-0.7031717300415039
119967532383,d4:ca:6e:f1:7a:a0,-110.11260986328125,-84.1915054321289,-96.24646759033203,0.15615443885326385,0.7133277654647827,-0.7989931106567383
119967549053.3334,d4:ca:6e:f1:7a:a0,-115.41343688964844,-83.87957763671875,-90.74673461914062,0.37661388516426086,0.6152763962745667,-0.5885696411132812
119967565723.66681,d4:ca:6e:f1:7a:a0,-117.16606140136719,-83.75741577148438,-88.65449523925781,0.6732853651046753,0.9653301239013672,-0.7328290939331055
119967582394.00021,d4:ca:6e:f1:7a:a0,-114.24679565429688,-83.95198059082031,-91.17034912109375,-0.8437005281448364,1.0968735218048096,-0.7024898529052734
119967599064.33362,d4:ca:6e:f1:7a:a0,-110.15278625488281,-84.0382308959961,-94.95855712890625,-0.15578192472457886,0.3174782991409302,-0.5950784683227539
119967615734.66702,d4:ca:6e:f1:7a:a0,-106.26103973388672,-83.89571380615234,-98.63783264160156,-0.6988562345504761,1.0385490655899048,-0.39783573150634766
119967632405.00043,d4:ca:6e:f1:7a:a0,-102.33853912353516,-83.66191101074219,-102.45681762695312,-0.3784526288509369,0.8321729898452759,-0.12057113647460938
119967649075.33383,d4:ca:6e:f1:7a:a0,-99.79312133789062,-83.32635498046875,-105.0447998046875,-0.599967896938324,0.8101246356964111,0.3093595504760742
119967665745.66724,d4:ca:6e:f1:7a:a0,-97.52152252197266,-82.99002838134766,-107.47464752197266,-0.3812669515609741,0.8373914957046509,0.5931949615478516
119967682416.00064,d4:ca:6e:f1:7a:a0,-95.65347290039062,-82.68460845947266,-109.54977416992188,-0.28434938192367554,0.5551610589027405,0.8064785003662109
119967699086.33405,d4:ca:6e:f1:7a:a0,-93.41497802734375,-82.45491027832031,-112.00421905517578,-0.19655808806419373,0.5037608742713928,0.8231773376464844
119967715756.66745,d4:ca:6e:f1:7a:a0,-90.58998107910156,-82.32463073730469,-115.0124740600586,-0.09603285789489746,0.392113596200943,0.7950410842895508
119967732427.00085,d4:ca:6e:f1:7a:a0,-87.5916519165039,-82.27899932861328,-118.1314697265625,-0.013168266043066978,0.19131037592887878,0.6595354080200195
119967749097.33426,d4:ca:6e:f1:7a:a0,-83.56006622314453,-82.28474426269531,-122.24987030029297,-0.04306274652481079,0.15261408686637878,0.4054574966430664
119967765767.66766,d4:ca:6e:f1:7a:a0,-79.30502319335938,-82.26627349853516,-126.51459503173828,0.06058567389845848,0.18963034451007843,0.4137105941772461
119967782438.00107,d4:ca:6e:f1:7a:a0,-75.89253997802734,-82.22413635253906,-129.84303283691406,-0.09164054691791534,0.2522834837436676,0.3298940658569336
119967799108.33447,d4:ca:6e:f1:7a:a0,-72.23175048828125,-82.15890502929688,-133.39697265625,-0.2769390940666199,0.331752747297287,0.20343875885009766
119967815778.66788,d4:ca:6e:f1:7a:a0,-67.75942993164062,-82.0395278930664,-137.7901611328125,-0.3617040812969208,0.33842000365257263,0.05321788787841797
119967832449.00128,d4:ca:6e:f1:7a:a0,-63.1460075378418,-81.86669921875,-142.36842346191406,-0.3134361207485199,0.28416743874549866,-0.19762420654296875
119967849119.33469,d4:ca:6e:f1:7a:a0,-58.75824737548828,-81.60157775878906,-146.74571228027344,-0.22983141243457794,0.2324320673942566,-0.2271718978881836
119967865789.66809,d4:ca:6e:f1:7a:a0,-55.55236053466797,-81.30096435546875,-149.89723205566406,-0.21769213676452637,0.3226436376571655,-0.23149967193603516
119967882460.0015,d4:ca:6e:f1:7a:a0,-52.77432632446289,-80.9292221069336,-152.582763671875,-0.22401762008666992,0.45284122228622437,-0.42069244384765625
119967899130.3349,d4:ca:6e:f1:7a:a0,-50.171566009521484,-80.5177230834961,-155.10667419433594,-0.398999959230423,0.44246575236320496,-0.5460605621337891
119967915800.6683,d4:ca:6e:f1:7a:a0,-47.50667190551758,-79.96160125732422,-157.73387145996094,-0.33988457918167114,0.4361136853694916,-0.638728141784668
119967932471.00171,d4:ca:6e:f1:7a:a0,-45.93083190917969,-79.43943786621094,-159.28041076660156,-0.11210037767887115,0.427028089761734,-0.6505231857299805
119967949141.33511,d4:ca:6e:f1:7a:a0,-45.63434600830078,-78.9610824584961,-159.54443359375,-0.044639043509960175,0.316707581281662,-0.5659599304199219
119967965811.66852,d4:ca:6e:f1:7a:a0,-46.86425018310547,-78.56172180175781,-158.2761993408203,0.15495264530181885,0.2665775418281555,-0.30247974395751953
119967982482.00192,d4:ca:6e:f1:7a:a0,-48.619503021240234,-78.1251220703125,-156.48855590820312,-0.006792069878429174,0.5013400912284851,-0.08545970916748047
119967999152.33533,d4:ca:6e:f1:7a:a0,-48.05742263793945,-78.18612670898438,-156.97840881347656,-0.37979984283447266,0.3389037549495697,4.351447105407715
119968015822.66873,d4:ca:6e:f1:7a:a0,-46.6135139465332,-77.93753814697266,-158.50767517089844,0.5871004462242126,0.2978844940662384,0.08262157440185547
119968032493.00214,d4:ca:6e:f1:7a:a0,-46.180118560791016,-77.95929718017578,-158.99496459960938,0.39391979575157166,0.8276756405830383,-0.5098514556884766
119968049163.33554,d4:ca:6e:f1:7a:a0,-45.84637451171875,-77.99725341796875,-159.3158721923828,0.42339643836021423,0.8128229379653931,0.32576465606689453
119968065833.66895,d4:ca:6e:f1:7a:a0,-45.44289016723633,-78.00531768798828,-159.704833984375,0.21836288273334503,0.35323601961135864,-0.11614799499511719
119968082504.00235,d4:ca:6e:f1:7a:a0,-45.10312271118164,-78.05413818359375,-160.0758819580078,0.27944037318229675,0.416530966758728,-0.1683340072631836
119968099174.33575,d4:ca:6e:f1:7a:a0,-43.908966064453125,-77.92367553710938,-161.32626342773438,0.0074935234151780605,0.36606550216674805,0.17104244232177734
119968115844.66916,d4:ca:6e:f1:7a:a0,-42.612693786621094,-77.84481811523438,-162.56703186035156,1.6114449501037598,-0.6686451435089111,0.42768287658691406
119968132515.00256,d4:ca:6e:f1:7a:a0,-41.77350616455078,-78.08406829833984,-163.21348571777344,0.5819849967956543,-0.08921726047992706,0.2112598419189453
119968149185.33597,d4:ca:6e:f1:7a:a0,-41.107635498046875,-78.32594299316406,-163.7016143798828,-0.44048503041267395,0.5316810011863708,-0.5001668930053711
119968165855.66937,d4:ca:6e:f1:7a:a0,-40.01334762573242,-78.38714599609375,-164.74378967285156,-0.350850909948349,0.324506551027298,-0.41356754302978516
119968182526.00278,d4:ca:6e:f1:7a:a0,-38.86865997314453,-78.45526885986328,-165.91542053222656,-0.23725344240665436,0.2855001389980316,0.2897377014160156
119968199196.33618,d4:ca:6e:f1:7a:a0,-37.25794982910156,-78.4676513671875,-167.5215301513672,0.09436528384685516,0.29977044463157654,0.2736387252807617
119968215866.66959,d4:ca:6e:f1:7a:a0,-36.053627014160156,-78.5411605834961,-168.66551208496094,0.3463798463344574,-0.001764802378602326,0.07807159423828125
119968232537.00299,d4:ca:6e:f1:7a:a0,-35.3975830078125,-78.65403747558594,-169.2448272705078,0.06274431943893433,0.12647302448749542,-0.01975250244140625
119968249207.3364,d4:ca:6e:f1:7a:a0,-35.078956604003906,-78.7483139038086,-169.4884490966797,-0.06616242974996567,0.22620120644569397,0.04992198944091797
119968265877.6698,d4:ca:6e:f1:7a:a0,-34.66909408569336,-78.77964782714844,-169.8103485107422,-0.15519411861896515,0.33987340331077576,-0.03048992156982422
119968282548.0032,d4:ca:6e:f1:7a:a0,-34.19337463378906,-78.7536849975586,-170.1964874267578,-0.13507255911827087,0.2654356062412262,-0.05524635314941406
119968299218.33661,d4:ca:6e:f1:7a:a0,-33.80234146118164,-78.69725036621094,-170.51133728027344,-0.07591582834720612,0.2753688097000122,-0.03939628601074219
119968315888.67001,d4:ca:6e:f1:7a:a0,-33.20775604248047,-78.5966796875,-171.02174377441406,-0.16563300788402557,0.4327690303325653,0.03295707702636719
119968332559.00342,d4:ca:6e:f1:7a:a0,-32.29034423828125,-78.46097564697266,-171.8325958251953,-0.011602403596043587,0.3438323140144348,-0.016050338745117188
119968349229.33682,d4:ca:6e:f1:7a:a0,-31.406692504882812,-78.33814239501953,-172.59039306640625,0.12220384925603867,0.21890579164028168,-0.07346916198730469
119968365899.67023,d4:ca:6e:f1:7a:a0,-30.68146324157715,-78.2579345703125,-173.18179321289062,0.1540108025074005,0.25805801153182983,-0.06156635284423828
119968382570.00363,d4:ca:6e:f1:7a:a0,-30.046730041503906,-78.19615173339844,-173.69834899902344,0.11102479696273804,0.2613212466239929,0.007871627807617188
119968399240.33704,d4:ca:6e:f1:7a:a0,-29.66851234436035,-78.19927215576172,-173.99546813964844,0.2989475131034851,0.11394304782152176,0.009772300720214844
119968415910.67044,d4:ca:6e:f1:7a:a0,-29.775592803955078,-78.33049774169922,-173.82313537597656,0.40134578943252563,0.11387878656387329,-0.034638404846191406
119968432460.999,d4:ca:6e:f1:7a:a0,-30.251995086669922,-78.58319854736328,-173.2723388671875,0.3222469687461853,0.18683135509490967,0.014464378356933594
119968449131.3324,d4:ca:6e:f1:7a:a0,-30.704500198364258,-78.85417175292969,-172.72744750976562,0.002650095382705331,0.38236337900161743,0.010499954223632812
119968465801.6658,d4:ca:6e:f1:7a:a0,-31.23551368713379,-79.17891693115234,-172.10440063476562,0.03157024085521698,0.24054765701293945,-0.10499858856201172
119968482471.9992,d4:ca:6e:f1:7a:a0,-31.781091690063477,-79.42701721191406,-171.5080108642578,-0.04448099061846733,0.3673577904701233,-0.04869270324707031
119968499142.33261,d4:ca:6e:f1:7a:a0,-32.38466262817383,-79.69023895263672,-170.89016723632812,0.1486731767654419,0.47964751720428467,-0.049472808837890625
119968515812.66602,d4:ca:6e:f1:7a:a0,-32.85607147216797,-79.95321655273438,-170.4019012451172,-0.009246591478586197,0.15563005208969116,0.1631927490234375
119968532482.99942,d4:ca:6e:f1:7a:a0,-33.679473876953125,-80.27415466308594,-169.5489501953125,0.19561676681041718,0.21676850318908691,-0.05806922912597656
119968549153.33282,d4:ca:6e:f1:7a:a0,-34.72762680053711,-80.62149810791016,-168.45208740234375,0.1207689419388771,0.26939457654953003,-0.032319068908691406
119968565823.66623,d4:ca:6e:f1:7a:a0,-35.795841217041016,-80.95699310302734,-167.33656311035156,-0.12349431961774826,0.38977089524269104,0.0012025833129882812
119968582293.699,d4:ca:6e:f1:7a:a0,-36.31336212158203,-81.19647979736328,-166.7783966064453,-0.3655884265899658,0.5042477250099182,0.09566593170166016
119968598964.03241,d4:ca:6e:f1:7a:a0,-36.32860565185547,-81.30426788330078,-166.75668334960938,-0.2420928031206131,0.29711610078811646,-0.02868938446044922
119968615634.36581,d4:ca:6e:f1:7a:a0,-36.75434875488281,-81.38837432861328,-166.3377227783203,0.11769946664571762,0.13081900775432587,-0.2243032455444336
119968632304.69922,d4:ca:6e:f1:7a:a0,-37.72144317626953,-81.51575469970703,-165.37393188476562,0.16536003351211548,0.19012917578220367,-0.023386001586914062
119968648975.03262,d4:ca:6e:f1:7a:a0,-38.91400909423828,-81.67784881591797,-164.1775665283203,0.09470625221729279,0.31565403938293457,0.06046009063720703
119968665645.36603,d4:ca:6e:f1:7a:a0,-39.86894989013672,-81.8311996459961,-163.1956024169922,-0.04351791739463806,0.4081936180591583,0.08532333374023438
119968682315.69943,d4:ca:6e:f1:7a:a0,-40.3874397277832,-81.93512725830078,-162.6410675048828,-0.1487829089164734,0.43778353929519653,0.02720928192138672
119968698986.03284,d4:ca:6e:f1:7a:a0,-40.38979721069336,-81.96900939941406,-162.609130859375,-0.20413382351398468,0.425525039434433,-0.0027761459350585938
119968715656.36624,d4:ca:6e:f1:7a:a0,-40.21360778808594,-81.95775604248047,-162.76527404785156,0.08793802559375763,0.25898492336273193,-0.1029958724975586
119968732326.69965,d4:ca:6e:f1:7a:a0,-40.326446533203125,-81.97463989257812,-162.62887573242188,0.15190273523330688,0.23765747249126434,0.03138542175292969
119968748997.03305,d4:ca:6e:f1:7a:a0,-40.822898864746094,-82.03659057617188,-162.09918212890625,0.18219606578350067,0.1749107390642166,-0.042888641357421875
119968765667.36646,d4:ca:6e:f1:7a:a0,-41.484230041503906,-82.06902313232422,-161.42276000976562,-0.08171066641807556,0.36281511187553406,-0.4587278366088867
119968782337.69986,d4:ca:6e:f1:7a:a0,-42.992740631103516,-82.12875366210938,-159.91990661621094,-0.17863918840885162,0.1393982619047165,-0.1874980926513672
119968799008.03326,d4:ca:6e:f1:7a:a0,-43.2845458984375,-82.09431457519531,-159.65501403808594,0.07002542167901993,0.6984159350395203,0.8615589141845703
119968815678.36667,d4:ca:6e:f1:7a:a0,-42.13570022583008,-82.11002349853516,-160.73715209960938,0.5330424308776855,0.3530219495296478,0.37590885162353516
119968832348.70007,d4:ca:6e:f1:7a:a0,-41.77354431152344,-82.20814514160156,-161.01016235351562,-0.1041368916630745,0.11229564994573593,-0.6495752334594727
119968849019.03348,d4:ca:6e:f1:7a:a0,-41.92081832885742,-82.19926452636719,-160.8811492919922,-0.4516150653362274,0.3111686408519745,-0.4117145538330078
119968865689.36688,d4:ca:6e:f1:7a:a0,-41.73556900024414,-82.0755615234375,-161.1480712890625,-0.16574183106422424,0.28966283798217773,0.04121208190917969
119968882359.70029,d4:ca:6e:f1:7a:a0,-41.40869140625,-81.91473388671875,-161.54397583007812,0.08578810095787048,0.039432380348443985,-0.8049983978271484
119968899030.03369,d4:ca:6e:f1:7a:a0,-43.519439697265625,-81.84705352783203,-159.54135131835938,0.4383777379989624,-0.14556007087230682,-0.2656888961791992
119968915700.3671,d4:ca:6e:f1:7a:a0,-45.734710693359375,-81.86389923095703,-157.367431640625,0.4213339388370514,0.4838181436061859,0.6607351303100586
119968932370.7005,d4:ca:6e:f1:7a:a0,-46.84314727783203,-81.90245819091797,-156.17633056640625,0.17094343900680542,0.4335872530937195,0.3477945327758789
119968949041.0339,d4:ca:6e:f1:7a:a0,-47.83284378051758,-81.96368408203125,-155.13124084472656,-0.16294923424720764,0.34857526421546936,-0.027825355529785156
119968965711.36731,d4:ca:6e:f1:7a:a0,-48.38239669799805,-81.95072937011719,-154.5895538330078,-0.31854647397994995,0.41406717896461487,-0.00954437255859375
119968982381.70071,d4:ca:6e:f1:7a:a0,-48.36729431152344,-81.87100219726562,-154.62020874023438,-0.0707753375172615,0.33612391352653503,0.041535377502441406
119968999052.03412,d4:ca:6e:f1:7a:a0,-48.10753631591797,-81.74405670166016,-154.88597106933594,-0.052592724561691284,0.23440071940422058,-0.040973663330078125
119969015722.36752,d4:ca:6e:f1:7a:a0,-48.121376037597656,-81.615478515625,-154.85182189941406,0.16204960644245148,0.1621900498867035,-0.1177225112915039
119969032392.70093,d4:ca:6e:f1:7a:a0,-48.318870544433594,-81.45840454101562,-154.5707550048828,0.1374312788248062,0.12476962804794312,-0.2701711654663086
119969049063.03433,d4:ca:6e:f1:7a:a0,-49.06743240356445,-81.29356384277344,-153.71011352539062,0.03708522766828537,0.13790570199489594,-0.30593299865722656
119969065733.36774,d4:ca:6e:f1:7a:a0,-49.356910705566406,-81.22239685058594,-153.3512420654297,-0.036834850907325745,0.7998850345611572,0.7398519515991211
119969082403.70114,d4:ca:6e:f1:7a:a0,-48.219032287597656,-81.05846405029297,-154.49986267089844,-0.34269407391548157,0.4767194986343384,0.1306304931640625
119969099074.03455,d4:ca:6e:f1:7a:a0,-47.7864875793457,-81.0111312866211,-154.92791748046875,0.8856491446495056,0.01068140473216772,-0.2865629196166992
119969115744.36795,d4:ca:6e:f1:7a:a0,-48.23305130004883,-81.10343933105469,-154.4613037109375,-0.007433328311890364,0.3317531943321228,-0.037741661071777344
119969132414.70135,d4:ca:6e:f1:7a:a0,-48.297462463378906,-81.14541625976562,-154.38156127929688,0.06640379875898361,0.24889922142028809,0.042731285095214844
119969149085.03476,d4:ca:6e:f1:7a:a0,-48.92857360839844,-81.2646255493164,-153.72662353515625,0.2993406653404236,0.16180025041103363,-0.08716678619384766
119969165755.36816,d4:ca:6e:f1:7a:a0,-49.61928939819336,-81.38926696777344,-153.01943969726562,0.04345530644059181,0.32910585403442383,-0.06998157501220703
119969182425.70157,d4:ca:6e:f1:7a:a0,-50.20988082885742,-81.52699279785156,-152.4056396484375,-0.32107675075531006,0.3880162537097931,0.0038433074951171875
119969199096.03497,d4:ca:6e:f1:7a:a0,-49.78928756713867,-81.5156478881836,-152.83563232421875,-0.22760914266109467,0.32186174392700195,-0.06567573547363281
119969215766.36838,d4:ca:6e:f1:7a:a0,-49.548824310302734,-81.54753112792969,-153.07142639160156,0.3359432816505432,0.16686980426311493,-0.28888797760009766
119969232436.70178,d4:ca:6e:f1:7a:a0,-49.799320220947266,-81.67293548583984,-152.7939910888672,0.15719392895698547,0.23131076991558075,-0.07389545440673828
119969249107.03519,d4:ca:6e:f1:7a:a0,-49.67047119140625,-81.739990234375,-152.89405822753906,-0.2053229957818985,0.37771302461624146,0.0886220932006836
119969265777.36859,d4:ca:6e:f1:7a:a0,-49.09697723388672,-81.76219177246094,-153.4413299560547,-0.17819206416606903,0.4297652244567871,-0.10414409637451172
119969282447.702,d4:ca:6e:f1:7a:a0,-48.16566848754883,-81.7435073852539,-154.3411407470703,0.09945527464151382,0.22950628399848938,-0.07465934753417969
119969299118.0354,d4:ca:6e:f1:7a:a0,-47.26483154296875,-81.72300720214844,-155.21002197265625,-0.027038097381591797,0.35451725125312805,0.04779529571533203
119969315788.3688,d4:ca:6e:f1:7a:a0,-46.689369201660156,-81.73112487792969,-155.75631713867188,0.43415069580078125,-0.0869944840669632,0.224822998046875
119969332458.70221,d4:ca:6e:f1:7a:a0,-46.4615364074707,-81.7408676147461,-155.96653747558594,-0.24133898317813873,0.3312424123287201,0.04111003875732422
119969349129.03561,d4:ca:6e:f1:7a:a0,-46.82449722290039,-81.9079360961914,-155.62255859375,-0.04801059514284134,-0.13452517986297607,-1.668137550354004
119969365799.36902,d4:ca:6e:f1:7a:a0,-45.6348991394043,-81.96920776367188,-156.79739379882812,-0.026573894545435905,0.9578074216842651,1.3404502868652344
119969382469.70242,d4:ca:6e:f1:7a:a0,-45.09322738647461,-81.98322296142578,-157.2993621826172,0.9275699853897095,-0.024713939055800438,-0.009769439697265625
119969399140.03583,d4:ca:6e:f1:7a:a0,-45.997955322265625,-82.19963836669922,-156.3352813720703,0.3719817101955414,0.09124977886676788,0.34401798248291016
119969415810.36923,d4:ca:6e:f1:7a:a0,-47.9883918762207,-82.48326110839844,-154.2898712158203,0.416494756937027,0.04277065768837929,0.056679725646972656
119969432480.70264,d4:ca:6e:f1:7a:a0,-50.29363250732422,-82.76016998291016,-151.93589782714844,-0.11546175181865692,0.24510955810546875,0.20236682891845703
119969449151.03604,d4:ca:6e:f1:7a:a0,-52.11720657348633,-82.93928527832031,-150.08079528808594,-0.28172439336776733,0.2993578314781189,0.19097042083740234
119969465821.36945,d4:ca:6e:f1:7a:a0,-52.97847366333008,-82.98796081542969,-149.20924377441406,-0.34424254298210144,0.30570152401924133,0.2906808853149414
119969482491.70285,d4:ca:6e:f1:7a:a0,-52.539947509765625,-82.8843765258789,-149.65199279785156,-0.49327874183654785,0.37637922167778015,0.4099750518798828
119969499162.03625,d4:ca:6e:f1:7a:a0,-50.441158294677734,-82.55853271484375,-151.77325439453125,-0.514925479888916,0.40983453392982483,0.3690338134765625
119969515832.36966,d4:ca:6e:f1:7a:a0,-47.45363998413086,-82.04828643798828,-154.76101684570312,-0.08932587504386902,0.3428977131843567,0.1352672576904297
119969532502.70306,d4:ca:6e:f1:7a:a0,-44.73359680175781,-81.49816131591797,-157.50148010253906,0.4298546314239502,-0.013967604376375675,0.04696941375732422
119969549173.03647,d4:ca:6e:f1:7a:a0,-43.471012115478516,-81.1394271850586,-158.71881103515625,0.8150670528411865,0.24961905181407928,-0.07669544219970703
119969565843.36987,d4:ca:6e:f1:7a:a0,-41.349212646484375,-81.1527328491211,-160.6722412109375,0.7243701815605164,0.8012227416038513,1.553837776184082
119969582513.70328,d4:ca:6e:f1:7a:a0,-36.49775695800781,-81.12139129638672,-165.27879333496094,-0.5610930919647217,1.0667037963867188,0.3736553192138672
119969599184.03668,d4:ca:6e:f1:7a:a0,-32.0426139831543,-81.03060913085938,-169.6365966796875,-0.22189195454120636,-0.03333952650427818,-2.030056953430176
119969615854.37009,d4:ca:6e:f1:7a:a0,-30.317766189575195,-80.87480163574219,-171.33865356445312,0.0028513269498944283,-0.3958995044231415,-1.8966660499572754
119969632524.70349,d4:ca:6e:f1:7a:a0,-30.34548568725586,-80.70428466796875,-171.33392333984375,-0.036473095417022705,0.04064270108938217,-0.20729541778564453
119969649195.0369,d4:ca:6e:f1:7a:a0,-30.357248306274414,-80.52190399169922,-171.37844848632812,0.17940735816955566,0.3381974399089813,0.5834751129150391
119969665865.3703,d4:ca:6e:f1:7a:a0,-30.180191040039062,-80.43482971191406,-171.5608673095703,0.5889601111412048,0.13287219405174255,0.20336532592773438
119969682535.7037,d4:ca:6e:f1:7a:a0,-30.255481719970703,-80.48609924316406,-171.4318084716797,0.31423938274383545,0.1446901559829712,-0.07990074157714844
119969699206.03711,d4:ca:6e:f1:7a:a0,-30.240188598632812,-80.53044128417969,-171.399658203125,-0.2881262004375458,0.38513273000717163,-0.08053302764892578
119969715876.37051,d4:ca:6e:f1:7a:a0,-29.67091178894043,-80.37984466552734,-172.01296997070312,-0.6749683618545532,0.6075316667556763,-0.8793067932128906
119969732546.70392,d4:ca:6e:f1:7a:a0,-30.281253814697266,-80.33515930175781,-171.53549194335938,0.4441255033016205,-0.2980475425720215,0.2989015579223633
119969749217.03732,d4:ca:6e:f1:7a:a0,-29.863061904907227,-80.23267364501953,-171.96261596679688,0.42573079466819763,0.7255288362503052,1.3233566284179688
119969765887.37073,d4:ca:6e:f1:7a:a0,-29.005258560180664,-80.32701873779297,-172.7897491455078,1.0645414590835571,-0.08360859751701355,0.04535961151123047
119969782557.70413,d4:ca:6e:f1:7a:a0,-29.725509643554688,-80.66083526611328,-172.0699005126953,0.46894901990890503,-0.33022263646125793,-0.8728876113891602
119969799228.03754,d4:ca:6e:f1:7a:a0,-31.772722244262695,-81.06182861328125,-170.09190368652344,-0.17215996980667114,0.19472572207450867,-0.3187904357910156
119969815898.37094,d4:ca:6e:f1:7a:a0,-33.600547790527344,-81.31454467773438,-168.33926391601562,-0.6063336133956909,0.5053330063819885,0.06011772155761719
119969832568.70435,d4:ca:6e:f1:7a:a0,-34.874290466308594,-81.36509704589844,-167.15087890625,-0.39001497626304626,0.18491382896900177,-0.05687904357910156
119969849239.03775,d4:ca:6e:f1:7a:a0,-36.39573287963867,-81.28778839111328,-165.70211791992188,-0.14291928708553314,0.10686814039945602,-0.033532142639160156
119969865909.37115,d4:ca:6e:f1:7a:a0,-38.067222595214844,-81.24195861816406,-164.1221160888672,0.4542829394340515,0.32270532846450806,0.23787498474121094
119969882579.70456,d4:ca:6e:f1:7a:a0,-39.41823959350586,-81.32445526123047,-162.8446502685547,0.4243202805519104,0.3869618773460388,0.41707420349121094
119969899250.03796,d4:ca:6e:f1:7a:a0,-40.9253044128418,-81.54864501953125,-161.28277587890625,0.6514992713928223,0.09037349373102188,0.1250896453857422
119969915920.37137,d4:ca:6e:f1:7a:a0,-43.049476623535156,-81.891357421875,-159.04611206054688,0.30530065298080444,0.29465270042419434,-0.05132770538330078
119969932590.70477,d4:ca:6e:f1:7a:a0,-45.52217483520508,-82.24581909179688,-156.5146942138672,-0.09122864156961441,0.10836796462535858,-0.4000978469848633
119969949261.03818,d4:ca:6e:f1:7a:a0,-48.9791145324707,-82.56136322021484,-153.0734405517578,-0.06758833676576614,0.059146612882614136,-0.5367202758789062
119969965931.37158,d4:ca:6e:f1:7a:a0,-53.3836669921875,-82.8066635131836,-148.72903442382812,0.0009479883010499179,0.030491357669234276,-0.08022308349609375
119969982601.70499,d4:ca:6e:f1:7a:a0,-58.278316497802734,-82.97954559326172,-143.9059600830078,0.13579314947128296,0.11684837937355042,0.25798606872558594
119969999272.03839,d4:ca:6e:f1:7a:a0,-62.42255401611328,-83.03057861328125,-139.76658630371094,-0.5385071635246277,0.21192766726016998,0.3864412307739258
119970015942.3718,d4:ca:6e:f1:7a:a0,-63.8947868347168,-82.75757598876953,-138.13314819335938,-0.6821402311325073,0.031137142330408096,0.044983863830566406
119970032612.7052,d4:ca:6e:f1:7a:a0,-64.44608306884766,-82.252685546875,-137.28359985351562,-0.4279128611087799,-0.5382298231124878,-0.4782896041870117
119970049283.0386,d4:ca:6e:f1:7a:a0,-63.0372428894043,-81.82305908203125,-138.20523071289062,-0.12040349841117859,-0.59327632188797,0.3787870407104492
