sep=,
Measurement Mode:,Complete (Euler)
StartTime:,Sat, 12 Mar 2022 17:14:01 GMT
© Xsens Technologies B. V. 2005-2022

Timestamp,Address,Euler_x,Euler_y,Euler_z,FreeAcc_x,FreeAcc_y,FreeAcc_z
121019312055.7,d4:ca:6e:f1:77:09,0.41397303342819214,-0.6739903092384338,-162.5823211669922,0.007644628640264273,-0.007759669795632362,0.033863067626953125
121019317925.3,d4:ca:6e:f1:77:09,0.41919901967048645,-0.6774740815162659,-162.5725860595703,-0.0108066750690341,-0.004176883492618799,0.022004127502441406
121019334595.6334,d4:ca:6e:f1:77:09,0.41743290424346924,-0.6924667358398438,-162.56170654296875,-0.0056761824525892735,-0.001356780412606895,0.019317626953125
121019342853.6,d4:ca:6e:f1:77:09,0.41438233852386475,-0.7060620784759521,-162.5513458251953,0.008924712426960468,0.0025285060983151197,0.04857158660888672
121019359523.93341,d4:ca:6e:f1:77:09,0.4085334837436676,-0.7114177346229553,-162.5406951904297,0.0009480079170316458,0.0010863908100873232,0.013362884521484375
121019376194.26682,d4:ca:6e:f1:77:09,0.4015299081802368,-0.7168505191802979,-162.53196716308594,-0.0053253439255058765,-0.008763350546360016,0.027306556701660156
121019392864.60022,d4:ca:6e:f1:77:09,0.39869922399520874,-0.7232354283332825,-162.52053833007812,-0.015369114466011524,-0.02291511371731758,0.026605606079101562
121019409534.93362,d4:ca:6e:f1:77:09,0.3965587913990021,-0.7340941429138184,-162.5144500732422,-0.009397856891155243,-0.01448831707239151,0.022437095642089844
121019426205.26703,d4:ca:6e:f1:77:09,0.3927413821220398,-0.7440361380577087,-162.5067596435547,0.010104081593453884,-0.0022656775545328856,0.025272369384765625
121019442875.60043,d4:ca:6e:f1:77:09,0.3881755471229553,-0.7514868974685669,-162.4984130859375,0.029138417914509773,0.0031244971323758364,0.02378368377685547
121019459545.93384,d4:ca:6e:f1:77:09,0.3841463029384613,-0.7551089525222778,-162.48907470703125,0.02220167964696884,0.012342477217316628,0.02989959716796875
121019476216.26724,d4:ca:6e:f1:77:09,0.3807148337364197,-0.7584769129753113,-162.47865295410156,0.014928215183317661,0.000521696696523577,0.022939682006835938
121019492739.3,d4:ca:6e:f1:77:09,0.3760119676589966,-0.7618218660354614,-162.4693603515625,0.005562939681112766,-0.006520701572299004,0.01710033416748047
121019509409.6334,d4:ca:6e:f1:77:09,0.3723582327365875,-0.7651271820068359,-162.46127319335938,0.005731844808906317,-0.010540137998759747,0.032065391540527344
121019526079.96681,d4:ca:6e:f1:77:09,0.3662240207195282,-0.767763614654541,-162.452392578125,-0.004850456956773996,-0.010628705844283104,0.040839195251464844
121019542750.30022,d4:ca:6e:f1:77:09,0.3613521456718445,-0.7719889879226685,-162.44329833984375,0.017466140910983086,-0.013169189915060997,0.009589195251464844
121019559420.63362,d4:ca:6e:f1:77:09,0.35691598057746887,-0.7767441272735596,-162.43338012695312,0.020072370767593384,-0.0026534688659012318,0.027939796447753906
121019576090.96703,d4:ca:6e:f1:77:09,0.3515307605266571,-0.7811300158500671,-162.42515563964844,0.018810458481311798,-0.013788710348308086,0.017393112182617188
121019592761.30043,d4:ca:6e:f1:77:09,0.34639209508895874,-0.7853661179542542,-162.41651916503906,0.004538452718406916,-0.006670570466667414,0.02978229522705078
121019609431.63383,d4:ca:6e:f1:77:09,0.34141650795936584,-0.7892050743103027,-162.40896606445312,0.009321363642811775,-0.0110479099676013,0.02638721466064453
121019626101.96724,d4:ca:6e:f1:77:09,0.3362073600292206,-0.7933608889579773,-162.4008026123047,0.011080845259130001,0.0011510594049468637,0.022830963134765625
121019642425.899,d4:ca:6e:f1:77:09,0.3311099410057068,-0.7965306639671326,-162.39117431640625,0.014616535976529121,-0.011090925894677639,0.03984355926513672
121019659096.2324,d4:ca:6e:f1:77:09,0.32525262236595154,-0.8009597659111023,-162.38162231445312,0.010580236092209816,-0.024645667523145676,0.024625778198242188
121019675766.56581,d4:ca:6e:f1:77:09,0.32048362493515015,-0.8060897588729858,-162.37380981445312,0.010840716771781445,-0.013495535589754581,0.020880699157714844
121019692436.89922,d4:ca:6e:f1:77:09,0.31649425625801086,-0.8113323450088501,-162.36532592773438,0.024176280945539474,-0.015757456421852112,0.025173187255859375
121019709107.23262,d4:ca:6e:f1:77:09,0.3121771216392517,-0.8156034350395203,-162.35723876953125,0.02145574241876602,-0.015341573394834995,0.017479896545410156
121019725777.56602,d4:ca:6e:f1:77:09,0.3068380653858185,-0.8208242058753967,-162.34788513183594,0.027294829487800598,-0.014910252764821053,0.01814556121826172
121019742447.89943,d4:ca:6e:f1:77:09,0.30142566561698914,-0.8251541256904602,-162.33657836914062,0.03298602253198624,-0.017092084512114525,0.030435562133789062
121019759118.23283,d4:ca:6e:f1:77:09,0.2969665825366974,-0.8294758200645447,-162.3272705078125,0.03257029876112938,-0.013673562556505203,0.016943931579589844
121019775788.56624,d4:ca:6e:f1:77:09,0.2935759127140045,-0.8327932357788086,-162.31771850585938,0.018282871693372726,-0.025424417108297348,0.027291297912597656
121019792458.89964,d4:ca:6e:f1:77:09,0.28722187876701355,-0.8368589878082275,-162.30821228027344,0.023231614381074905,-0.026701975613832474,0.016031265258789062
121019809129.23305,d4:ca:6e:f1:77:09,0.2823304235935211,-0.8410012125968933,-162.2974395751953,0.035724539309740067,-0.018307724967598915,0.01889801025390625
121019825799.56645,d4:ca:6e:f1:77:09,0.2776910662651062,-0.8452060222625732,-162.28785705566406,0.028218308463692665,-0.020037326961755753,0.021918296813964844
121019842469.89986,d4:ca:6e:f1:77:09,0.2730359733104706,-0.8501372933387756,-162.27847290039062,0.010966509580612183,-0.0329836905002594,0.02872753143310547
121019859140.23326,d4:ca:6e:f1:77:09,0.26681849360466003,-0.8536511659622192,-162.2684326171875,0.011012747883796692,-0.033533528447151184,0.014521598815917969
121019875810.56667,d4:ca:6e:f1:77:09,0.2621311843395233,-0.8584907054901123,-162.25901794433594,0.013346170075237751,-0.02314586751163006,0.025246620178222656
121019892480.90007,d4:ca:6e:f1:77:09,0.25900545716285706,-0.8625667095184326,-162.2511444091797,0.01962069794535637,-0.0407024510204792,0.02594470977783203
121019909151.23347,d4:ca:6e:f1:77:09,0.2549097239971161,-0.8679152131080627,-162.24423217773438,0.021794389933347702,-0.030081382021307945,0.018982887268066406
121019925821.56688,d4:ca:6e:f1:77:09,0.25115808844566345,-0.8707168102264404,-162.23690795898438,0.03875533118844032,-0.0156413447111845,0.031821250915527344
121019942491.90028,d4:ca:6e:f1:77:09,0.2472907304763794,-0.8758246898651123,-162.22816467285156,0.053465891629457474,-0.015124847181141376,0.02058124542236328
121019959162.23369,d4:ca:6e:f1:77:09,0.24346326291561127,-0.8796676397323608,-162.21817016601562,0.05000193789601326,-0.020400214940309525,0.05121135711669922
121019975832.5671,d4:ca:6e:f1:77:09,0.23821845650672913,-0.8844430446624756,-162.20962524414062,0.038548894226551056,-0.03614622727036476,0.01404571533203125
121019992502.9005,d4:ca:6e:f1:77:09,0.23374409973621368,-0.8881465792655945,-162.20138549804688,0.01197210606187582,-0.041443340480327606,0.019107818603515625
121020009173.2339,d4:ca:6e:f1:77:09,0.22961533069610596,-0.8921894431114197,-162.19456481933594,-0.012833282351493835,-0.04130757972598076,0.0081329345703125
121020025843.5673,d4:ca:6e:f1:77:09,0.2252378910779953,-0.896598756313324,-162.18911743164062,0.006245579570531845,-0.049059171229600906,0.031762123107910156
121020042513.90071,d4:ca:6e:f1:77:09,0.2199428677558899,-0.9014224410057068,-162.18368530273438,0.06160695105791092,-0.03208281472325325,0.04129314422607422
121020059184.23412,d4:ca:6e:f1:77:09,0.2141900211572647,-0.9072101712226868,-162.17584228515625,0.08619764447212219,0.0026329520624130964,-0.0035181045532226562
121020075854.56752,d4:ca:6e:f1:77:09,0.19691185653209686,-0.9196299910545349,-159.8313446044922,1.5228376388549805,4.207010269165039,-0.05460548400878906
121020092524.90092,d4:ca:6e:f1:77:09,0.11907527595758438,-0.905024528503418,-156.6351776123047,0.6069114208221436,0.6670153737068176,0.1405773162841797
121020109195.23433,d4:ca:6e:f1:77:09,-0.04243592545390129,-0.8503209352493286,-153.56695556640625,-2.581338405609131,-3.5617318153381348,0.041187286376953125
121020125865.56773,d4:ca:6e:f1:77:09,-0.02173065021634102,-0.8840777277946472,-151.80517578125,-0.14311520755290985,0.6913558840751648,-0.12301826477050781
121020142535.90114,d4:ca:6e:f1:77:09,-0.04394973814487457,-0.8714831471443176,-151.57476806640625,-1.2061718702316284,0.060666780918836594,0.0032052993774414062
121020159206.23454,d4:ca:6e:f1:77:09,-0.02168409340083599,-0.8878626227378845,-152.6905517578125,-0.7874847650527954,-0.464470237493515,0.18318939208984375
121020175876.56795,d4:ca:6e:f1:77:09,-0.020304309204220772,-0.9127854108810425,-154.1082000732422,0.8837587237358093,-0.7015228271484375,-0.051476478576660156
121020192546.90135,d4:ca:6e:f1:77:09,-0.007939238101243973,-0.9257853031158447,-155.08657836914062,1.027674913406372,-0.5766670107841492,0.06111621856689453
121020209217.23476,d4:ca:6e:f1:77:09,-0.01072327047586441,-0.936323881149292,-155.21759033203125,0.7229742407798767,-0.33664488792419434,0.00036144256591796875
121020225887.56816,d4:ca:6e:f1:77:09,-0.014534065499901772,-0.9417579174041748,-155.20986938476562,0.07031533867120743,-0.04512356221675873,0.015091896057128906
121020242557.90157,d4:ca:6e:f1:77:09,-0.00954124890267849,-0.9481667876243591,-155.22683715820312,-0.5069131255149841,0.31114721298217773,0.04913330078125
121020259228.23497,d4:ca:6e:f1:77:09,-0.014597478322684765,-0.9506402611732483,-155.45223999023438,-0.42702028155326843,-0.24493032693862915,0.06824398040771484
121020275898.56837,d4:ca:6e:f1:77:09,-0.006220292299985886,-0.9826565384864807,-155.72772216796875,-0.8992660641670227,2.212350845336914,0.16881561279296875
121020292568.90178,d4:ca:6e:f1:77:09,-0.024979252368211746,-0.9695849418640137,-156.6455841064453,-1.2902276515960693,0.11805330216884613,-0.16611766815185547
121020309239.23518,d4:ca:6e:f1:77:09,0.007693459279835224,-1.0066274404525757,-157.75294494628906,1.0962343215942383,-0.9553795456886292,0.33092308044433594
121020325909.56859,d4:ca:6e:f1:77:09,0.008228551596403122,-1.0110728740692139,-158.09547424316406,2.10376238822937,-1.633063554763794,-0.2370748519897461
121020342579.902,d4:ca:6e:f1:77:09,0.006021733395755291,-1.016200304031372,-158.0897979736328,0.06606743484735489,-0.048940643668174744,0.0396728515625
121020359250.2354,d4:ca:6e:f1:77:09,0.001332804444245994,-1.0196126699447632,-158.08309936523438,0.0956357941031456,-0.020899338647723198,0.038970947265625
121020375920.5688,d4:ca:6e:f1:77:09,-0.0051787118427455425,-1.0252535343170166,-158.0731658935547,0.06803290545940399,-0.06791481375694275,0.016214370727539062
121020392590.9022,d4:ca:6e:f1:77:09,-0.012815521098673344,-1.0272955894470215,-158.05703735351562,0.030050694942474365,-0.06812050938606262,0.012115478515625
121020409261.23561,d4:ca:6e:f1:77:09,-0.01604393869638443,-1.0315606594085693,-158.05026245117188,0.03940281271934509,-0.06853519380092621,0.040740013122558594
121020425931.56902,d4:ca:6e:f1:77:09,-0.02314029633998871,-1.0329903364181519,-158.0441131591797,0.03446713089942932,-0.05644143000245094,0.0010557174682617188
121020442601.90242,d4:ca:6e:f1:77:09,-0.028016289696097374,-1.0374583005905151,-158.03627014160156,0.07457531988620758,-0.057322438806295395,0.018296241760253906
121020459272.23582,d4:ca:6e:f1:77:09,-0.03228968381881714,-1.0417779684066772,-158.0276641845703,0.09674052894115448,-0.05520923063158989,0.02548694610595703
121020475942.56923,d4:ca:6e:f1:77:09,-0.03485218808054924,-1.0455824136734009,-158.01951599121094,0.09464841336011887,-0.03859087452292442,0.01728534698486328
121020492612.90263,d4:ca:6e:f1:77:09,-0.03899170458316803,-1.0501595735549927,-158.01132202148438,0.07875846326351166,-0.06763174384832382,0.030767440795898438
121020509283.23604,d4:ca:6e:f1:77:09,-0.04316183924674988,-1.0540318489074707,-158.00344848632812,0.06612029671669006,-0.06355363875627518,0.014375686645507812
121020525953.56944,d4:ca:6e:f1:77:09,-0.04865768551826477,-1.0581340789794922,-157.9951629638672,0.06461048126220703,-0.07632499933242798,0.026531219482421875
121020542623.90285,d4:ca:6e:f1:77:09,-0.05269916355609894,-1.0609703063964844,-157.98638916015625,0.06727194786071777,-0.0704793706536293,0.03718376159667969
121020559294.23625,d4:ca:6e:f1:77:09,-0.05583515763282776,-1.064792513847351,-157.9788818359375,0.06707971543073654,-0.08139509707689285,0.01687145233154297
121020575964.56966,d4:ca:6e:f1:77:09,-0.060567937791347504,-1.0688074827194214,-157.97320556640625,0.048383209854364395,-0.06856874376535416,0.02289581298828125
121020592634.90306,d4:ca:6e:f1:77:09,-0.0656275749206543,-1.0728803873062134,-157.9673309326172,0.04913987219333649,-0.07849112898111343,0.04098701477050781
121020609305.23647,d4:ca:6e:f1:77:09,-0.06830955296754837,-1.0769482851028442,-157.96192932128906,0.05253741890192032,-0.07060695439577103,0.02419757843017578
121020625975.56987,d4:ca:6e:f1:77:09,-0.07075637578964233,-1.081750750541687,-157.9547882080078,0.11346669495105743,-0.02887965925037861,0.018370628356933594
121020642645.90327,d4:ca:6e:f1:77:09,-0.07396812736988068,-1.085566520690918,-157.9477996826172,0.11852937936782837,-0.04322009161114693,0.009765625
121020659316.23668,d4:ca:6e:f1:77:09,-0.07781645655632019,-1.0903937816619873,-157.9405059814453,0.10223592072725296,-0.047150466591119766,0.04090309143066406
121020675986.57008,d4:ca:6e:f1:77:09,-0.08040627092123032,-1.093917965888977,-157.93238830566406,0.0671454444527626,-0.07671269029378891,0.01931476593017578
121020692656.90349,d4:ca:6e:f1:77:09,-0.0847325399518013,-1.0983097553253174,-157.92495727539062,0.04020337015390396,-0.07778705656528473,0.007121086120605469
121020709327.2369,d4:ca:6e:f1:77:09,-0.08740358054637909,-1.1027227640151978,-157.91879272460938,0.03854677081108093,-0.07138525694608688,0.06134986877441406
121020725997.5703,d4:ca:6e:f1:77:09,-0.09008905291557312,-1.1064602136611938,-157.91287231445312,0.06386145949363708,-0.07307271659374237,0.0041103363037109375
121020742667.9037,d4:ca:6e:f1:77:09,-0.0934552550315857,-1.110765814781189,-157.9065399169922,0.09247532486915588,-0.05221763625741005,0.019788742065429688
121020759338.2371,d4:ca:6e:f1:77:09,-0.09694291651248932,-1.114917516708374,-157.8988037109375,0.10227923095226288,-0.04504553601145744,0.0410919189453125
121020776008.57051,d4:ca:6e:f1:77:09,-0.10077076405286789,-1.1182833909988403,-157.89102172851562,0.1011490449309349,-0.03963899984955788,0.02446746826171875
121020792678.90392,d4:ca:6e:f1:77:09,-0.10221046209335327,-1.1220165491104126,-157.88284301757812,0.08113601058721542,-0.06638647615909576,0.04994010925292969
121020809349.23732,d4:ca:6e:f1:77:09,-0.10386403650045395,-1.12413489818573,-157.87449645996094,0.0627937912940979,-0.07476594299077988,0.004631996154785156
121020826019.57072,d4:ca:6e:f1:77:09,-0.10705159604549408,-1.1279507875442505,-157.8666229248047,0.0681794285774231,-0.09458448737859726,0.022269248962402344
121020842635.4,d4:ca:6e:f1:77:09,-0.10986997932195663,-1.1312823295593262,-157.8614044189453,0.07249615341424942,-0.0820147916674614,0.046138763427734375
121020859305.7334,d4:ca:6e:f1:77:09,-0.11211469024419785,-1.1337435245513916,-157.85447692871094,0.08759666234254837,-0.05315246433019638,0.019048690795898438
121020875976.0668,d4:ca:6e:f1:77:09,-0.11566504091024399,-1.1370185613632202,-157.845458984375,0.11560828238725662,-0.03468110039830208,0.029419898986816406
121020892646.4002,d4:ca:6e:f1:77:09,-0.11759781092405319,-1.140256404876709,-157.8365936279297,0.11467548459768295,-0.05445193126797676,0.03493022918701172
121020909316.73361,d4:ca:6e:f1:77:09,-0.1193377897143364,-1.144079327583313,-157.82762145996094,0.08817040920257568,-0.053629320114851,0.02358531951904297
121020925987.06702,d4:ca:6e:f1:77:09,-0.12046069651842117,-1.1473537683486938,-157.81871032714844,0.06746380031108856,-0.0844460055232048,0.032797813415527344
121020942657.40042,d4:ca:6e:f1:77:09,-0.12323638796806335,-1.150015950202942,-157.81048583984375,0.028177285566926003,-0.10725422948598862,0.02834033966064453
121020959327.73383,d4:ca:6e:f1:77:09,-0.12510299682617188,-1.1532529592514038,-157.8037567138672,0.03838791325688362,-0.09767673164606094,0.006228446960449219
121020975998.06723,d4:ca:6e:f1:77:09,-0.1268714964389801,-1.1559405326843262,-157.79827880859375,0.06394003331661224,-0.07812415808439255,0.04584693908691406
121020992419.299,d4:ca:6e:f1:77:09,-0.1275528222322464,-1.1589272022247314,-157.79478454589844,0.11676064878702164,-0.049635741859674454,0.026266098022460938
121021009089.6324,d4:ca:6e:f1:77:09,-0.12926426529884338,-1.1616032123565674,-157.78890991210938,0.13379304111003876,-0.025761641561985016,-0.0037240982055664062
121021025759.9658,d4:ca:6e:f1:77:09,-0.13038159906864166,-1.1646208763122559,-157.78041076660156,0.15950706601142883,-0.03036712296307087,0.026750564575195312
121021042430.29921,d4:ca:6e:f1:77:09,-0.1318778693675995,-1.1663435697555542,-157.76995849609375,0.13976658880710602,-0.02891792729496956,0.01825714111328125
121021059100.63261,d4:ca:6e:f1:77:09,-0.13454629480838776,-1.1687065362930298,-157.75889587402344,0.10868153721094131,-0.04571955278515816,0.014688491821289062
121021075770.96602,d4:ca:6e:f1:77:09,-0.1372617483139038,-1.1712173223495483,-157.7473602294922,0.07971660047769547,-0.07090134173631668,0.04104804992675781
121021092441.29942,d4:ca:6e:f1:77:09,-0.13881100714206696,-1.1744561195373535,-157.73654174804688,0.06136571243405342,-0.08257971704006195,0.011910438537597656
121021109111.63283,d4:ca:6e:f1:77:09,-0.14071565866470337,-1.1765756607055664,-157.7269287109375,0.05055380240082741,-0.08813460171222687,0.022742271423339844
121021125781.96623,d4:ca:6e:f1:77:09,-0.1431955248117447,-1.1791980266571045,-157.7188720703125,0.056985799223184586,-0.09938757121562958,0.03560638427734375
121021142452.29964,d4:ca:6e:f1:77:09,-0.1449638456106186,-1.1809887886047363,-157.71202087402344,0.07589091360569,-0.07963733375072479,0.008505821228027344
121021159122.63304,d4:ca:6e:f1:77:09,-0.1489897519350052,-1.184255599975586,-157.70700073242188,0.09026343375444412,-0.07366988062858582,0.031027793884277344
121021175792.96645,d4:ca:6e:f1:77:09,-0.14913815259933472,-1.186623454093933,-157.7021484375,0.09626724570989609,-0.0462028868496418,0.03667926788330078
121021192463.29985,d4:ca:6e:f1:77:09,-0.1510372906923294,-1.1895506381988525,-157.69590759277344,0.11123140156269073,-0.050036635249853134,0.013029098510742188
121021209133.63326,d4:ca:6e:f1:77:09,-0.15150506794452667,-1.1922687292099,-157.68951416015625,0.12583933770656586,-0.05787575989961624,0.023598670959472656
121021225803.96666,d4:ca:6e:f1:77:09,-0.15316563844680786,-1.1938278675079346,-157.68157958984375,0.10956119745969772,-0.06291599571704865,0.019901275634765625
121021242474.30006,d4:ca:6e:f1:77:09,-0.15408051013946533,-1.1970248222351074,-157.6739959716797,0.11161531507968903,-0.05250195786356926,0.011707305908203125
121021259144.63347,d4:ca:6e:f1:77:09,-0.1544002741575241,-1.1994738578796387,-157.6670379638672,0.09732791781425476,-0.06126773729920387,0.04500007629394531
121021275814.96687,d4:ca:6e:f1:77:09,-0.15457123517990112,-1.2008697986602783,-157.6602020263672,0.08584579080343246,-0.06667356193065643,0.02240276336669922
121021292485.30028,d4:ca:6e:f1:77:09,-0.15517260134220123,-1.2046692371368408,-157.6534881591797,0.09245050698518753,-0.07483100891113281,0.024570465087890625
121021309155.63368,d4:ca:6e:f1:77:09,-0.156444251537323,-1.2066582441329956,-157.6475372314453,0.0989488884806633,-0.07524551451206207,0.024283409118652344
121021325825.96709,d4:ca:6e:f1:77:09,-0.156904399394989,-1.2086751461029053,-157.6399688720703,0.09907621145248413,-0.06334493309259415,0.024930953979492188
121021342496.30049,d4:ca:6e:f1:77:09,-0.15750759840011597,-1.2106740474700928,-157.63214111328125,0.09800668805837631,-0.07095076888799667,0.024698257446289062
121021359166.6339,d4:ca:6e:f1:77:09,-0.15776166319847107,-1.2120473384857178,-157.6248321533203,0.08792585879564285,-0.07144416123628616,0.02751922607421875
121021375836.9673,d4:ca:6e:f1:77:09,-0.15827761590480804,-1.2145323753356934,-157.61770629882812,0.10672557353973389,-0.0562698096036911,0.010416984558105469
121021392507.3007,d4:ca:6e:f1:77:09,-0.1598290503025055,-1.2163639068603516,-157.61036682128906,0.10279189050197601,-0.06639043241739273,0.030422210693359375
121021409177.63411,d4:ca:6e:f1:77:09,-0.15960825979709625,-1.218240737915039,-157.60186767578125,0.10673467069864273,-0.06425932049751282,0.02417469024658203
121021425847.96751,d4:ca:6e:f1:77:09,-0.16075849533081055,-1.2221136093139648,-157.59251403808594,0.11939990520477295,-0.06657195091247559,0.0151824951171875
121021442518.30092,d4:ca:6e:f1:77:09,-0.1613536924123764,-1.2239161729812622,-157.58331298828125,0.10672895610332489,-0.07660166174173355,0.022899627685546875
121021459188.63432,d4:ca:6e:f1:77:09,-0.16244666278362274,-1.2249317169189453,-157.5755615234375,0.09093421697616577,-0.07792222499847412,0.021406173706054688
121021475858.96773,d4:ca:6e:f1:77:09,-0.16285352408885956,-1.2264710664749146,-157.5668182373047,0.10810839384794235,-0.06870388239622116,0.02409076690673828
121021492529.30113,d4:ca:6e:f1:77:09,-0.1624906212091446,-1.2278833389282227,-157.55929565429688,0.09923647344112396,-0.07736239582300186,0.020891189575195312
121021509199.63454,d4:ca:6e:f1:77:09,-0.16128864884376526,-1.230059266090393,-157.5525360107422,0.10173438489437103,-0.08341173827648163,0.020215988159179688
121021525869.96794,d4:ca:6e:f1:77:09,-0.16012461483478546,-1.2314318418502808,-157.54530334472656,0.10329266637563705,-0.07553916424512863,0.02349567413330078
121021542540.30135,d4:ca:6e:f1:77:09,-0.1601840704679489,-1.232305645942688,-157.53794860839844,0.11183516681194305,-0.073553666472435,0.028741836547851562
121021559210.63475,d4:ca:6e:f1:77:09,-0.15955355763435364,-1.234006643295288,-157.53103637695312,0.10070514678955078,-0.054508376866579056,0.015470504760742188
121021575880.96815,d4:ca:6e:f1:77:09,-0.16010837256908417,-1.2362922430038452,-157.52430725097656,0.10204014182090759,-0.0732526183128357,0.02394866943359375
121021592551.30156,d4:ca:6e:f1:77:09,-0.15969863533973694,-1.2381459474563599,-157.51730346679688,0.1011451929807663,-0.07380520552396774,0.022710800170898438
121021609221.63496,d4:ca:6e:f1:77:09,-0.15960603952407837,-1.2408851385116577,-157.5095977783203,0.11372106522321701,-0.06555940210819244,0.01911163330078125
121021625891.96837,d4:ca:6e:f1:77:09,-0.16029976308345795,-1.2428383827209473,-157.5011444091797,0.10505361109972,-0.07454686611890793,0.004115104675292969
121021642562.30177,d4:ca:6e:f1:77:09,-0.16042590141296387,-1.2431703805923462,-157.49314880371094,0.11960400640964508,-0.06348320841789246,0.032479286193847656
121021659232.63518,d4:ca:6e:f1:77:09,-0.1606142222881317,-1.2451176643371582,-157.48704528808594,0.09795450419187546,-0.0809764564037323,0.013398170471191406
121021675902.96858,d4:ca:6e:f1:77:09,-0.15860876441001892,-1.2468881607055664,-157.48065185546875,0.10257833451032639,-0.07888494431972504,0.021282196044921875
121021692573.30199,d4:ca:6e:f1:77:09,-0.15826155245304108,-1.246923565864563,-157.47340393066406,0.09129247814416885,-0.061467453837394714,0.03886127471923828
121021709243.63539,d4:ca:6e:f1:77:09,-0.15767233073711395,-1.2469701766967773,-157.46676635742188,0.11410009860992432,-0.07066913694143295,0.01738262176513672
121021725913.9688,d4:ca:6e:f1:77:09,-0.1575816124677658,-1.2490206956863403,-157.4584503173828,0.11325467377901077,-0.06352207064628601,0.016729354858398438
121021742584.3022,d4:ca:6e:f1:77:09,-0.15754355490207672,-1.2501046657562256,-157.45179748535156,0.09460698813199997,-0.07532921433448792,0.029184341430664062
121021759254.6356,d4:ca:6e:f1:77:09,-0.1562819927930832,-1.2516132593154907,-157.44415283203125,0.1057276725769043,-0.06658957898616791,0.030493736267089844
121021775924.96901,d4:ca:6e:f1:77:09,-0.1570037305355072,-1.2524124383926392,-157.43600463867188,0.11592260748147964,-0.063899464905262,0.031523704528808594
121021792595.30241,d4:ca:6e:f1:77:09,-0.15688219666481018,-1.2539416551589966,-157.42796325683594,0.09899391233921051,-0.07143158465623856,0.042797088623046875
121021809265.63582,d4:ca:6e:f1:77:09,-0.15608586370944977,-1.2550311088562012,-157.4210968017578,0.10149046778678894,-0.05252403765916824,0.03334617614746094
121021825935.96922,d4:ca:6e:f1:77:09,-0.15671971440315247,-1.2564927339553833,-157.41357421875,0.10899097472429276,-0.060760706663131714,0.020529747009277344
121021842606.30263,d4:ca:6e:f1:77:09,-0.15592224895954132,-1.2575465440750122,-157.40504455566406,0.12350324541330338,-0.05322017893195152,0.017081260681152344
121021859276.63603,d4:ca:6e:f1:77:09,-0.1552739143371582,-1.258055329322815,-157.39862060546875,0.10897055268287659,-0.06133563071489334,0.012473106384277344
121021875946.96944,d4:ca:6e:f1:77:09,-0.15441061556339264,-1.2573107481002808,-157.39056396484375,0.10288970917463303,-0.07843997329473495,0.026439666748046875
121021892617.30284,d4:ca:6e:f1:77:09,-0.1554921716451645,-1.2576208114624023,-157.38336181640625,0.10630960762500763,-0.062103670090436935,0.025971412658691406
121021909287.63625,d4:ca:6e:f1:77:09,-0.15321744978427887,-1.2582699060440063,-157.37640380859375,0.10791352391242981,-0.07043106108903885,0.023387908935546875
121021925957.96965,d4:ca:6e:f1:77:09,-0.15294361114501953,-1.2584317922592163,-157.3688507080078,0.11791504174470901,-0.06950308382511139,0.02283763885498047
121021942628.30305,d4:ca:6e:f1:77:09,-0.15052500367164612,-1.258529782295227,-157.3619384765625,0.12287995964288712,-0.06490814685821533,0.019056320190429688
121021959298.63646,d4:ca:6e:f1:77:09,-0.14904916286468506,-1.2593815326690674,-157.3550262451172,0.11740528047084808,-0.052115537226200104,0.02054595947265625
121021975968.96986,d4:ca:6e:f1:77:09,-0.1474715620279312,-1.25981605052948,-157.34803771972656,0.10703089088201523,-0.06464054435491562,0.029788970947265625
121021992639.30327,d4:ca:6e:f1:77:09,-0.14578090608119965,-1.2596521377563477,-157.3406219482422,0.09474988281726837,-0.07215839624404907,0.030370712280273438
121022009309.63667,d4:ca:6e:f1:77:09,-0.1443735659122467,-1.260380744934082,-157.3345947265625,0.10216858237981796,-0.08031357079744339,0.020689964294433594
121022025979.97008,d4:ca:6e:f1:77:09,-0.14465206861495972,-1.2602728605270386,-157.328125,0.10550518333911896,-0.07223300635814667,0.0218505859375
121022042650.30348,d4:ca:6e:f1:77:09,-0.14324212074279785,-1.2599375247955322,-157.32174682617188,0.11592362076044083,-0.04344430938363075,0.02346515655517578
121022059320.63689,d4:ca:6e:f1:77:09,-0.1412983387708664,-1.2601336240768433,-157.31512451171875,0.11404242366552353,-0.05906055495142937,0.022558212280273438
121022075990.97029,d4:ca:6e:f1:77:09,-0.13978739082813263,-1.2604306936264038,-157.30860900878906,0.11037818342447281,-0.06163890287280083,0.027500152587890625
121022092661.3037,d4:ca:6e:f1:77:09,-0.13805225491523743,-1.2604422569274902,-157.30223083496094,0.10404568910598755,-0.05903995409607887,0.013370513916015625
121022109331.6371,d4:ca:6e:f1:77:09,-0.13668988645076752,-1.2598693370819092,-157.29440307617188,0.10847271978855133,-0.05077043175697327,0.0020914077758789062
121022126001.9705,d4:ca:6e:f1:77:09,-0.13590507209300995,-1.2593319416046143,-157.28778076171875,0.10657606273889542,-0.059965830296278,0.021417617797851562
121022142672.30391,d4:ca:6e:f1:77:09,-0.134040966629982,-1.2595555782318115,-157.28016662597656,0.0999513491988182,-0.06487070024013519,0.02164936065673828
121022159342.63731,d4:ca:6e:f1:77:09,-0.13275229930877686,-1.2592926025390625,-157.27255249023438,0.10318505018949509,-0.06187571957707405,0.018059730529785156
121022176012.97072,d4:ca:6e:f1:77:09,-0.13029012084007263,-1.25948965549469,-157.26583862304688,0.09174961596727371,-0.06397776305675507,0.020284652709960938
121022192524.899,d4:ca:6e:f1:77:09,-0.12864048779010773,-1.2580640316009521,-157.25814819335938,0.09625012427568436,-0.0626489520072937,0.01623249053955078
121022209195.2324,d4:ca:6e:f1:77:09,-0.12660586833953857,-1.25745689868927,-157.25279235839844,0.1155870333313942,-0.05274911969900131,0.02019500732421875
121022225865.56581,d4:ca:6e:f1:77:09,-0.12549139559268951,-1.2556312084197998,-157.24546813964844,0.10662615299224854,-0.05151428282260895,0.039628028869628906
121022242535.89922,d4:ca:6e:f1:77:09,-0.12281817942857742,-1.2542724609375,-157.23715209960938,0.13296110928058624,-0.039294078946113586,0.028777122497558594
121022259206.23262,d4:ca:6e:f1:77:09,-0.12041563540697098,-1.2552920579910278,-157.22862243652344,0.125251904129982,-0.05097129940986633,0.015208244323730469
121022275876.56602,d4:ca:6e:f1:77:09,-0.1185946986079216,-1.2550952434539795,-157.2208709716797,0.1148340106010437,-0.07372911274433136,0.019548416137695312
121022292546.89943,d4:ca:6e:f1:77:09,-0.11626410484313965,-1.255462884902954,-157.2140350341797,0.07835546880960464,-0.06821351498365402,0.017597198486328125
121022309217.23283,d4:ca:6e:f1:77:09,-0.11583597958087921,-1.2554881572723389,-157.20803833007812,0.0772145688533783,-0.08273003995418549,0.0286407470703125
121022325887.56624,d4:ca:6e:f1:77:09,-0.11237901449203491,-1.2557305097579956,-157.20172119140625,0.07443992048501968,-0.08120708912611008,0.017210006713867188
121022342431.599,d4:ca:6e:f1:77:09,-0.10957588255405426,-1.2545078992843628,-157.19606018066406,0.11396198719739914,-0.05692047253251076,0.02149677276611328
121022359101.9324,d4:ca:6e:f1:77:09,-0.10691995918750763,-1.2544370889663696,-157.1903076171875,0.1227482333779335,-0.04128914326429367,0.018326759338378906
121022375772.26581,d4:ca:6e:f1:77:09,-0.10624867677688599,-1.2529609203338623,-157.1832275390625,0.14090043306350708,-0.035515908151865005,0.03220939636230469
121022392442.59921,d4:ca:6e:f1:77:09,-0.10595961660146713,-1.2526860237121582,-157.17633056640625,0.12048967182636261,-0.05796198174357414,0.022057533264160156
121022409112.93262,d4:ca:6e:f1:77:09,-0.10367333889007568,-1.2520610094070435,-157.16798400878906,0.09209556132555008,-0.0586099810898304,0.04306507110595703
121022425783.26602,d4:ca:6e:f1:77:09,-0.10098870098590851,-1.251165747642517,-157.16062927246094,0.06991240382194519,-0.058390602469444275,0.0235595703125
121022442453.59943,d4:ca:6e:f1:77:09,-0.0995604544878006,-1.2504057884216309,-157.15367126464844,0.07031017541885376,-0.08339827507734299,0.02612781524658203
121022459123.93283,d4:ca:6e:f1:77:09,-0.0972229465842247,-1.2483303546905518,-157.14874267578125,0.09447795152664185,-0.06542233377695084,0.03067493438720703
121022475794.26624,d4:ca:6e:f1:77:09,-0.09543852508068085,-1.2480961084365845,-157.143310546875,0.10490723699331284,-0.06471923738718033,0.030031204223632812
121022492268.499,d4:ca:6e:f1:77:09,-0.09399625658988953,-1.2465604543685913,-157.1373748779297,0.11211097240447998,-0.04667452722787857,0.023578643798828125
121022508938.8324,d4:ca:6e:f1:77:09,-0.09198630601167679,-1.2463197708129883,-157.13182067871094,0.11047342419624329,-0.04828793182969093,0.03688812255859375
121022525609.1658,d4:ca:6e:f1:77:09,-0.08990520238876343,-1.2450952529907227,-157.1265106201172,0.1197396069765091,-0.05146443471312523,0.018823623657226562
121022542279.4992,d4:ca:6e:f1:77:09,-0.08741636574268341,-1.243484616279602,-157.11929321289062,0.11928563565015793,-0.04614514485001564,0.04047870635986328
121022558949.83261,d4:ca:6e:f1:77:09,-0.08497548848390579,-1.2424694299697876,-157.11199951171875,0.11011682450771332,-0.054159536957740784,0.01591968536376953
121022575620.16602,d4:ca:6e:f1:77:09,-0.08314962685108185,-1.2415233850479126,-157.10462951660156,0.10381556302309036,-0.06012927368283272,0.021165847778320312
121022592290.49942,d4:ca:6e:f1:77:09,-0.07993994653224945,-1.2417664527893066,-157.09828186035156,0.08053816109895706,-0.06992337852716446,0.015013694763183594
121022608960.83282,d4:ca:6e:f1:77:09,-0.07750077545642853,-1.2409310340881348,-157.09133911132812,0.10646460950374603,-0.05152368173003197,0.024553298950195312
121022625631.16623,d4:ca:6e:f1:77:09,-0.07525426149368286,-1.240530014038086,-157.08448791503906,0.09452084451913834,-0.03890855982899666,0.043669700622558594
121022642301.49963,d4:ca:6e:f1:77:09,-0.07235370576381683,-1.2395046949386597,-157.0784912109375,0.09816716611385345,-0.043999895453453064,0.029992103576660156
121022658971.83304,d4:ca:6e:f1:77:09,-0.06922436505556107,-1.2379777431488037,-157.07176208496094,0.10638841986656189,-0.06569202989339828,0.009741783142089844
121022675642.16644,d4:ca:6e:f1:77:09,-0.06747836619615555,-1.2371857166290283,-157.06455993652344,0.1171736940741539,-0.03655502572655678,0.0296630859375
121022692312.49985,d4:ca:6e:f1:77:09,-0.06538967043161392,-1.2368768453598022,-157.05848693847656,0.10373909771442413,-0.04352973401546478,0.02737903594970703
121022708982.83325,d4:ca:6e:f1:77:09,-0.06272732466459274,-1.236018419265747,-157.05043029785156,0.09664269536733627,-0.053855687379837036,0.010823249816894531
121022725653.16666,d4:ca:6e:f1:77:09,-0.05991175025701523,-1.2350356578826904,-157.04327392578125,0.0966084897518158,-0.05809522420167923,0.015878677368164062
121022742323.50006,d4:ca:6e:f1:77:09,-0.057452935725450516,-1.232985019683838,-157.0365753173828,0.08983903378248215,-0.05934295430779457,0.014857292175292969
121022758993.83347,d4:ca:6e:f1:77:09,-0.05555379018187523,-1.231568455696106,-157.0296173095703,0.10167370736598969,-0.048094622790813446,0.01917266845703125
121022775664.16687,d4:ca:6e:f1:77:09,-0.053230371326208115,-1.2310422658920288,-157.02188110351562,0.10285525023937225,-0.0482354573905468,0.043331146240234375
121022792334.50027,d4:ca:6e:f1:77:09,-0.05140310525894165,-1.2294901609420776,-157.0144500732422,0.10127483308315277,-0.058080434799194336,0.024771690368652344
121022809004.83368,d4:ca:6e:f1:77:09,-0.04967942833900452,-1.2289090156555176,-157.00927734375,0.10834125429391861,-0.046191729605197906,0.019483566284179688
121022825675.16708,d4:ca:6e:f1:77:09,-0.04845646768808365,-1.2275511026382446,-157.00218200683594,0.1051541343331337,-0.04127584770321846,0.03494739532470703
121022842345.50049,d4:ca:6e:f1:77:09,-0.04586147516965866,-1.2268800735473633,-156.9945831298828,0.10261109471321106,-0.037590619176626205,0.01597118377685547
121022859015.8339,d4:ca:6e:f1:77:09,-0.044421933591365814,-1.2256348133087158,-156.9868927001953,0.09333920478820801,-0.04315226897597313,0.017963409423828125
121022875686.1673,d4:ca:6e:f1:77:09,-0.041741885244846344,-1.2245101928710938,-156.98011779785156,0.08983573317527771,-0.03981276974081993,0.03321647644042969
121022892356.5007,d4:ca:6e:f1:77:09,-0.0382237434387207,-1.2232749462127686,-156.97386169433594,0.07699667662382126,-0.05276003107428551,0.01529693603515625
121022909026.8341,d4:ca:6e:f1:77:09,-0.03490786999464035,-1.2216657400131226,-156.96746826171875,0.07281150668859482,-0.06154788285493851,0.05207633972167969
121022925697.16751,d4:ca:6e:f1:77:09,-0.03162207081913948,-1.2193117141723633,-156.9610137939453,0.08980520069599152,-0.04588227719068527,0.02363300323486328
121022941644.4,d4:ca:6e:f1:77:09,-0.028515856713056564,-1.2170689105987549,-156.95689392089844,0.10301423072814941,-0.03458796441555023,0.03726959228515625
121022958314.7334,d4:ca:6e:f1:77:09,-0.02560710906982422,-1.2151542901992798,-156.95108032226562,0.1091260313987732,-0.04244879260659218,0.012709617614746094
121022974985.0668,d4:ca:6e:f1:77:09,-0.023911766707897186,-1.214203119277954,-156.94540405273438,0.10493014007806778,-0.027688173577189445,0.01810169219970703
121022991655.4002,d4:ca:6e:f1:77:09,-0.020997697487473488,-1.2124103307724,-156.94033813476562,0.09684676676988602,-0.039788708090782166,0.011148452758789062
121023008325.73361,d4:ca:6e:f1:77:09,-0.019307812675833702,-1.2112877368927002,-156.93157958984375,0.09676793217658997,-0.027951112017035484,0.023828506469726562
121023024996.06702,d4:ca:6e:f1:77:09,-0.0157934483140707,-1.2092437744140625,-156.92303466796875,0.0820351392030716,-0.030694877728819847,0.03079986572265625
121023041666.40042,d4:ca:6e:f1:77:09,-0.013932744972407818,-1.2072722911834717,-156.9149169921875,0.09714962542057037,-0.039185382425785065,0.020757675170898438
121023058336.73383,d4:ca:6e:f1:77:09,-0.013168643228709698,-1.2066466808319092,-156.9068145751953,0.09791021049022675,-0.03884188458323479,-0.0012693405151367188
121023075007.06723,d4:ca:6e:f1:77:09,-0.012165097519755363,-1.2059812545776367,-156.8988494873047,0.09209063649177551,-0.04792911186814308,0.010448455810546875
121023091677.40063,d4:ca:6e:f1:77:09,-0.011236194521188736,-1.2048611640930176,-156.8915252685547,0.08489055931568146,-0.039222367107868195,0.020287513732910156
121023108347.73404,d4:ca:6e:f1:77:09,-0.011868523433804512,-1.2036962509155273,-156.88465881347656,0.09838168323040009,-0.028045203536748886,0.03136444091796875
121023125018.06744,d4:ca:6e:f1:77:09,-0.012511419132351875,-1.2034268379211426,-156.87371826171875,0.14095713198184967,0.006212254520505667,0.008749961853027344
121023141688.40085,d4:ca:6e:f1:77:09,-0.011868571862578392,-1.2025221586227417,-156.85940551757812,0.17916887998580933,0.017286866903305054,0.05628776550292969
121023158358.73425,d4:ca:6e:f1:77:09,-0.009481825865805149,-1.201174020767212,-156.84304809570312,0.14558078348636627,-0.03272141143679619,-0.010156631469726562
121023175029.06766,d4:ca:6e:f1:77:09,-0.007775688543915749,-1.2006241083145142,-156.8286895751953,0.046855293214321136,-0.08774671703577042,0.03124523162841797
121023191699.40106,d4:ca:6e:f1:77:09,-0.0066177924163639545,-1.198095679283142,-156.82034301757812,-0.069390669465065,-0.11780387163162231,0.03029632568359375
121023208369.73447,d4:ca:6e:f1:77:09,-0.004512670449912548,-1.1966596841812134,-156.8166046142578,-0.07977522164583206,-0.14511056244373322,-0.014090538024902344
121023225040.06787,d4:ca:6e:f1:77:09,-0.0027878046967089176,-1.1966606378555298,-156.81517028808594,-0.030343372374773026,-0.14908762276172638,0.06179523468017578
121023241710.40128,d4:ca:6e:f1:77:09,-0.000894735218025744,-1.1940913200378418,-156.81446838378906,0.05941791459918022,-0.08066519349813461,0.024947166442871094
121023258380.73468,d4:ca:6e:f1:77:09,-0.00006068445509299636,-1.1942470073699951,-156.81402587890625,0.1332922726869583,0.00217517395503819,0.020275115966796875
121023275051.06808,d4:ca:6e:f1:77:09,0.003937148489058018,-1.192955732345581,-156.8113250732422,0.2102160006761551,0.028522394597530365,0.033771514892578125
121023291721.40149,d4:ca:6e:f1:77:09,0.005041984375566244,-1.1921594142913818,-156.80426025390625,0.21837741136550903,0.06824662536382675,0.007098197937011719
121023308391.7349,d4:ca:6e:f1:77:09,0.009429003112018108,-1.190462589263916,-156.79269409179688,0.18706825375556946,0.04793376475572586,0.04235267639160156
121023325062.0683,d4:ca:6e:f1:77:09,0.008831090293824673,-1.1882952451705933,-156.77818298339844,0.13577710092067719,-0.0058820610865950584,-0.03134346008300781
121023341732.4017,d4:ca:6e:f1:77:09,0.008495806716382504,-1.188882827758789,-156.7645263671875,0.06221449747681618,-0.042363665997982025,-0.010279655456542969
121023358402.7351,d4:ca:6e:f1:77:09,0.007731781806796789,-1.1882059574127197,-156.7537078857422,0.0280319657176733,-0.08143557608127594,0.089569091796875
121023375073.06851,d4:ca:6e:f1:77:09,0.007325346115976572,-1.1859078407287598,-156.74407958984375,-0.015265805646777153,-0.08407801389694214,0.029972076416015625
121023391743.40192,d4:ca:6e:f1:77:09,0.010840468108654022,-1.1848647594451904,-156.73788452148438,-0.0033126131165772676,-0.0953831598162651,0.025587081909179688
121023408413.73532,d4:ca:6e:f1:77:09,0.015018468722701073,-1.1839159727096558,-156.73251342773438,0.016318444162607193,-0.07038262486457825,0.060375213623046875
121023425084.06873,d4:ca:6e:f1:77:09,0.018998609855771065,-1.1821542978286743,-156.72987365722656,0.06800725311040878,-0.052007172256708145,0.007117271423339844
121023441754.40213,d4:ca:6e:f1:77:09,0.023626243695616722,-1.1806633472442627,-156.7278594970703,0.12048756331205368,-0.03758016973733902,0.016646385192871094
121023458424.73553,d4:ca:6e:f1:77:09,0.02489069290459156,-1.1793034076690674,-156.72335815429688,0.1660783886909485,0.02367309108376503,0.032975196838378906
121023475095.06894,d4:ca:6e:f1:77:09,0.02559746988117695,-1.1765990257263184,-156.71678161621094,0.1775822937488556,0.028886131942272186,0.0022220611572265625
121023491765.40234,d4:ca:6e:f1:77:09,0.026606187224388123,-1.1759991645812988,-156.70655822753906,0.1498623937368393,0.007029247470200062,0.026244163513183594
121023508435.73575,d4:ca:6e:f1:77:09,0.028500331565737724,-1.1753194332122803,-156.69606018066406,0.09709292650222778,-0.03761542961001396,0.04047393798828125
121023525106.06915,d4:ca:6e:f1:77:09,0.031784072518348694,-1.1732876300811768,-156.68603515625,0.021854199469089508,-0.05700211971998215,0.019165992736816406
121023541776.40256,d4:ca:6e:f1:77:09,0.03412284329533577,-1.171522617340088,-156.67803955078125,0.004141857847571373,-0.08536246418952942,0.032855987548828125
121023558446.73596,d4:ca:6e:f1:77:09,0.037339162081480026,-1.169592261314392,-156.67262268066406,0.0007267108885571361,-0.11011236906051636,0.02423095703125
121023575117.06937,d4:ca:6e:f1:77:09,0.03933538869023323,-1.168033242225647,-156.67079162597656,0.035667043179273605,-0.1004268154501915,0.027703285217285156
121023591787.40277,d4:ca:6e:f1:77:09,0.04310787096619606,-1.166860580444336,-156.67201232910156,0.033965010195970535,-0.057913463562726974,0.010799407958984375
121023608457.73618,d4:ca:6e:f1:77:09,0.04397960379719734,-1.1655579805374146,-156.67274475097656,0.09179912507534027,-0.01728571578860283,0.010788917541503906
121023625128.06958,d4:ca:6e:f1:77:09,0.045709528028964996,-1.1633858680725098,-156.66978454589844,0.16882319748401642,0.024670865386724472,0.020429611206054688
121023641798.40298,d4:ca:6e:f1:77:09,0.04920784384012222,-1.16074800491333,-156.6616973876953,0.19892968237400055,0.05206973850727081,0.009592056274414062
121023658468.73639,d4:ca:6e:f1:77:09,0.04883074015378952,-1.1594600677490234,-156.65176391601562,0.16511204838752747,0.02523476630449295,0.010010719299316406
121023675139.0698,d4:ca:6e:f1:77:09,0.050555936992168427,-1.1573363542556763,-156.63949584960938,0.11968671530485153,-0.01753171533346176,0.01838207244873047
121023691809.4032,d4:ca:6e:f1:77:09,0.05144163593649864,-1.1557492017745972,-156.6289825439453,0.040617458522319794,-0.048858094960451126,0.044259071350097656
121023708479.7366,d4:ca:6e:f1:77:09,0.053198084235191345,-1.1537446975708008,-156.62062072753906,-0.01226549781858921,-0.0621827095746994,0.0022735595703125
121023725150.07,d4:ca:6e:f1:77:09,0.05567355081439018,-1.1532140970230103,-156.61447143554688,0.005658968351781368,-0.048765186220407486,0.026192665100097656
121023741820.40341,d4:ca:6e:f1:77:09,0.058786485344171524,-1.1526756286621094,-156.60667419433594,0.05416720733046532,-0.059435274451971054,0.049068450927734375
121023758490.73682,d4:ca:6e:f1:77:09,0.06169014424085617,-1.1496065855026245,-156.5974884033203,0.08611863851547241,-0.04866374284029007,0.0024261474609375
121023775161.07022,d4:ca:6e:f1:77:09,0.06430758535861969,-1.1492120027542114,-156.5870819091797,0.06485600769519806,-0.012779012322425842,0.009419441223144531
121023791831.40363,d4:ca:6e:f1:77:09,0.06577872484922409,-1.1477199792861938,-156.57803344726562,0.06234397366642952,-0.0251790639013052,0.02429676055908203
121023808501.73703,d4:ca:6e:f1:77:09,0.06778116524219513,-1.1474248170852661,-156.57147216796875,0.09025922417640686,-0.03754604235291481,0.005748748779296875
121023825172.07043,d4:ca:6e:f1:77:09,0.0701923817396164,-1.1459046602249146,-156.56626892089844,0.09545653313398361,-0.041865814477205276,0.030202865600585938
121023841842.40384,d4:ca:6e:f1:77:09,0.07256662845611572,-1.144546389579773,-156.5592498779297,0.053884733468294144,-0.02180379629135132,0.06439495086669922
121023858512.73724,d4:ca:6e:f1:77:09,0.07892262190580368,-1.142072319984436,-156.5528564453125,0.012594461441040039,-0.03517192229628563,0.022792816162109375
121023875183.07065,d4:ca:6e:f1:77:09,0.08330891281366348,-1.1400514841079712,-156.548095703125,0.03397534787654877,-0.06204596534371376,-0.015264511108398438
121023891853.40405,d4:ca:6e:f1:77:09,0.0867304652929306,-1.1382825374603271,-156.54457092285156,0.07700322568416595,-0.0643545389175415,0.02971649169921875
121023908523.73746,d4:ca:6e:f1:77:09,0.08884181082248688,-1.135873556137085,-156.5399932861328,0.09038001298904419,-0.00959002785384655,0.03681659698486328
121023925194.07086,d4:ca:6e:f1:77:09,0.09064757823944092,-1.1331610679626465,-156.53375244140625,0.09866379201412201,0.03156640753149986,0.02126026153564453
121023941864.40427,d4:ca:6e:f1:77:09,0.09353132545948029,-1.1317392587661743,-156.5264434814453,0.12119752168655396,-0.0036890569608658552,0.024797439575195312
121023958534.73767,d4:ca:6e:f1:77:09,0.09561782330274582,-1.130973219871521,-156.5173797607422,0.12540899217128754,-0.013158326037228107,0.033478736877441406
121023975205.07108,d4:ca:6e:f1:77:09,0.09826087206602097,-1.128838062286377,-156.508056640625,0.06998400390148163,-0.01630016602575779,0.031662940979003906
121023991875.40448,d4:ca:6e:f1:77:09,0.10066427290439606,-1.127563714981079,-156.4989013671875,0.00858017522841692,-0.0394342802464962,0.019814491271972656
121024008545.73788,d4:ca:6e:f1:77:09,0.10238929092884064,-1.1266955137252808,-156.49082946777344,0.003930219449102879,-0.0556437224149704,0.04068183898925781
121024025216.07129,d4:ca:6e:f1:77:09,0.10556701570749283,-1.1248589754104614,-156.48532104492188,0.029119661077857018,-0.052623674273490906,0.027978897094726562
121024041886.4047,d4:ca:6e:f1:77:09,0.10877037793397903,-1.1238113641738892,-156.48040771484375,0.06359207630157471,-0.041245367377996445,0.023032188415527344
121024058556.7381,d4:ca:6e:f1:77:09,0.11077772080898285,-1.1231223344802856,-156.47508239746094,0.07992301881313324,-0.02441476657986641,0.02995777130126953
121024075227.0715,d4:ca:6e:f1:77:09,0.11298391222953796,-1.1221004724502563,-156.46913146972656,0.09881113469600677,-0.001608041231520474,0.03325653076171875
121024091897.4049,d4:ca:6e:f1:77:09,0.11596870422363281,-1.120206594467163,-156.46275329589844,0.10520064830780029,0.016723675653338432,0.009143829345703125
121024108567.73831,d4:ca:6e:f1:77:09,0.11864914000034332,-1.1183339357376099,-156.4541015625,0.0940641537308693,-0.002085456158965826,0.03193092346191406
121024125238.07172,d4:ca:6e:f1:77:09,0.12259046733379364,-1.1155730485916138,-156.4464111328125,0.06799452006816864,-0.031216496601700783,0.03036785125732422
121024141908.40512,d4:ca:6e:f1:77:09,0.12607096135616302,-1.1150137186050415,-156.43699645996094,0.051229365170001984,-0.03208421915769577,0.017144203186035156
121024158578.73853,d4:ca:6e:f1:77:09,0.129010409116745,-1.1150038242340088,-156.4300994873047,0.02908635139465332,-0.055666860193014145,0.029356956481933594
121024175249.07193,d4:ca:6e:f1:77:09,0.1311511993408203,-1.1136306524276733,-156.42486572265625,0.021137626841664314,-0.04776504635810852,0.0207061767578125
121024191919.40533,d4:ca:6e:f1:77:09,0.13382010161876678,-1.112433671951294,-156.42381286621094,0.019921056926250458,-0.04350343719124794,0.032204627990722656
121024208589.73874,d4:ca:6e:f1:77:09,0.13643097877502441,-1.110591173171997,-156.42189025878906,0.05217604711651802,-0.02508130669593811,0.031244277954101562
121024225260.07214,d4:ca:6e:f1:77:09,0.1398772895336151,-1.1093940734863281,-156.41802978515625,0.10883938521146774,0.01593918167054653,0.017449378967285156
121024241930.40555,d4:ca:6e:f1:77:09,0.14358770847320557,-1.107703447341919,-156.41065979003906,0.12977702915668488,0.03677348420023918,0.023528099060058594
121024258600.73895,d4:ca:6e:f1:77:09,0.14604036509990692,-1.105806827545166,-156.39932250976562,0.1490309089422226,0.03742625191807747,0.013883590698242188
121024275271.07236,d4:ca:6e:f1:77:09,0.147200807929039,-1.1042017936706543,-156.38929748535156,0.1043538749217987,0.014337095431983471,0.023672103881835938
121024291941.40576,d4:ca:6e:f1:77:09,0.14965179562568665,-1.1031205654144287,-156.38009643554688,0.07539855688810349,-0.02787582390010357,0.039519309997558594
121024308611.73917,d4:ca:6e:f1:77:09,0.1514652967453003,-1.1017242670059204,-156.37063598632812,0.0423583947122097,-0.03739442303776741,0.01759624481201172
121024325282.07257,d4:ca:6e:f1:77:09,0.15360552072525024,-1.1007814407348633,-156.36160278320312,0.0073463646695017815,-0.04457065463066101,0.009573936462402344
121024341952.40598,d4:ca:6e:f1:77:09,0.1562265306711197,-1.0997532606124878,-156.3535614013672,0.011708302423357964,-0.049223557114601135,0.030556678771972656
121024358622.73938,d4:ca:6e:f1:77:09,0.15660221874713898,-1.0987539291381836,-156.34486389160156,0.048450909554958344,-0.04732571914792061,0.009958267211914062
121024375293.07278,d4:ca:6e:f1:77:09,0.15870989859104156,-1.098371148109436,-156.33737182617188,0.054566849023103714,-0.012669042684137821,0.023772239685058594
121024391963.40619,d4:ca:6e:f1:77:09,0.16100603342056274,-1.0967869758605957,-156.33175659179688,0.054159652441740036,-0.010344291105866432,0.041586875915527344
121024408633.7396,d4:ca:6e:f1:77:09,0.16304931044578552,-1.0955334901809692,-156.32447814941406,0.04942992329597473,-0.017788629978895187,0.01998138427734375
121024425304.073,d4:ca:6e:f1:77:09,0.16566120088100433,-1.095116376876831,-156.31739807128906,0.03559117019176483,-0.033580418676137924,0.018607139587402344
121024441974.4064,d4:ca:6e:f1:77:09,0.16838908195495605,-1.093774437904358,-156.30996704101562,0.047409746795892715,-0.034277722239494324,0.03297233581542969
121024458644.7398,d4:ca:6e:f1:77:09,0.17044982314109802,-1.0913106203079224,-156.3038787841797,0.07391077280044556,-0.013395456597208977,0.03032684326171875
121024475315.07321,d4:ca:6e:f1:77:09,0.17287278175354004,-1.091678261756897,-156.2955322265625,0.07525814324617386,0.0017313400749117136,0.03001880645751953
121024491985.40662,d4:ca:6e:f1:77:09,0.17549216747283936,-1.090316891670227,-156.28831481933594,0.08178477734327316,0.005196085199713707,0.018456459045410156
121024508655.74002,d4:ca:6e:f1:77:09,0.17640793323516846,-1.0885953903198242,-156.27969360351562,0.08637278527021408,-0.027793647721409798,0.0161895751953125
121024525326.07343,d4:ca:6e:f1:77:09,0.17844083905220032,-1.087694525718689,-156.27200317382812,0.0668826550245285,-0.005783346947282553,0.0285491943359375
121024541996.40683,d4:ca:6e:f1:77:09,0.17955243587493896,-1.0873806476593018,-156.2660675048828,0.02480219677090645,-0.03024933487176895,0.01723957061767578
121024558666.74023,d4:ca:6e:f1:77:09,0.18087038397789001,-1.0853710174560547,-156.2595977783203,0.022664351388812065,-0.0402609221637249,0.03569602966308594
121024575337.07364,d4:ca:6e:f1:77:09,0.18399222195148468,-1.084926962852478,-156.2523651123047,0.02349025383591652,-0.03838833048939705,0.019657135009765625
121024592007.40704,d4:ca:6e:f1:77:09,0.18620477616786957,-1.0831984281539917,-156.2482452392578,0.043760571628808975,-0.03536269813776016,0.010282516479492188
121024608677.74045,d4:ca:6e:f1:77:09,0.1878536492586136,-1.0813227891921997,-156.24542236328125,0.044890426099300385,-0.0035156388767063618,0.025257110595703125
121024625348.07385,d4:ca:6e:f1:77:09,0.1915210336446762,-1.080228567123413,-156.2407989501953,0.07523505389690399,-0.0049287364818155766,0.03752899169921875
121024642018.40726,d4:ca:6e:f1:77:09,0.19392327964305878,-1.0779286623001099,-156.2334747314453,0.08827942609786987,-0.018799368292093277,0.009148597717285156
121024658688.74066,d4:ca:6e:f1:77:09,0.19547386467456818,-1.0764673948287964,-156.22630310058594,0.08663485944271088,0.002551276469603181,0.022034645080566406
121024675359.07407,d4:ca:6e:f1:77:09,0.1978471726179123,-1.0739068984985352,-156.2180938720703,0.056685663759708405,-0.003919791895896196,0.02130603790283203
121024692029.40747,d4:ca:6e:f1:77:09,0.19959653913974762,-1.0723254680633545,-156.21693420410156,0.05545905604958534,-0.011834018863737583,0.02140331268310547
121024708699.74088,d4:ca:6e:f1:77:09,0.20196262001991272,-1.070781946182251,-156.21163940429688,0.0535992756485939,-0.027330713346600533,0.03909587860107422
121024725370.07428,d4:ca:6e:f1:77:09,0.20472247898578644,-1.0679128170013428,-156.2052001953125,0.03647914528846741,-0.008170184679329395,0.024503707885742188
121024742040.40768,d4:ca:6e:f1:77:09,0.20741210877895355,-1.0668206214904785,-156.1990203857422,0.04238060489296913,-0.023628845810890198,0.0026006698608398438
121024758710.74109,d4:ca:6e:f1:77:09,0.2097202092409134,-1.0648454427719116,-156.19186401367188,0.05719316378235817,-0.02290114387869835,0.042084693908691406
121024775381.0745,d4:ca:6e:f1:77:09,0.21032145619392395,-1.062611699104309,-156.185302734375,0.05340315401554108,-0.0065372055396437645,0.030005455017089844
121024792051.4079,d4:ca:6e:f1:77:09,0.21296846866607666,-1.0621857643127441,-156.17897033691406,0.07134907692670822,0.004588644951581955,0.025213241577148438
121024808721.7413,d4:ca:6e:f1:77:09,0.21447406709194183,-1.0602548122406006,-156.17672729492188,0.061168134212493896,0.0017657610587775707,0.02125072479248047
121024825392.0747,d4:ca:6e:f1:77:09,0.21658332645893097,-1.0592960119247437,-156.1669158935547,0.053284335881471634,-0.005198586732149124,0.01974964141845703
121024842062.40811,d4:ca:6e:f1:77:09,0.21796244382858276,-1.0579533576965332,-156.1599578857422,0.04026702046394348,-0.03015541099011898,0.028908729553222656
121024858732.74152,d4:ca:6e:f1:77:09,0.21921949088573456,-1.056676983833313,-156.1470184326172,0.030889371410012245,-0.027528980746865273,0.009245872497558594
121024875403.07492,d4:ca:6e:f1:77:09,0.22206886112689972,-1.0554560422897339,-156.14370727539062,0.03508591279387474,-0.01630266383290291,0.02539539337158203
121024892073.40833,d4:ca:6e:f1:77:09,0.22412537038326263,-1.053458333015442,-156.13975524902344,0.06479435414075851,-0.004140869248658419,0.022264480590820312
121024908743.74173,d4:ca:6e:f1:77:09,0.22617469727993011,-1.0524375438690186,-156.14053344726562,0.080937959253788,0.008867407217621803,0.0117950439453125
121024925414.07513,d4:ca:6e:f1:77:09,0.2286708950996399,-1.0524266958236694,-156.1354217529297,0.07209943234920502,-0.011171571910381317,0.009674072265625
121024942084.40854,d4:ca:6e:f1:77:09,0.2294522523880005,-1.0512253046035767,-156.1298065185547,0.02516856975853443,-0.06911303848028183,0.05208778381347656
121024958754.74194,d4:ca:6e:f1:77:09,0.22881177067756653,-1.0504744052886963,-156.1324920654297,-0.04334799200296402,-0.08432070165872574,0.03610801696777344
121024975425.07535,d4:ca:6e:f1:77:09,0.23091042041778564,-1.0505794286727905,-156.1376953125,-0.0348241850733757,-0.03281276673078537,0.022103309631347656
121024992095.40875,d4:ca:6e:f1:77:09,0.2330833077430725,-1.0493000745773315,-156.1422576904297,0.026198362931609154,-0.005092725157737732,0.0376434326171875
121025008765.74216,d4:ca:6e:f1:77:09,0.23580390214920044,-1.0481996536254883,-156.1366424560547,0.09208905696868896,0.010197160765528679,0.0066204071044921875
121025025436.07556,d4:ca:6e:f1:77:09,0.2378602772951126,-1.0473331212997437,-156.14581298828125,0.13002938032150269,0.025868456810712814,0.029449462890625
121025042106.40897,d4:ca:6e:f1:77:09,0.23904182016849518,-1.0470890998840332,-156.143310546875,0.10289237648248672,0.033902738243341446,0.041534423828125
121025058776.74237,d4:ca:6e:f1:77:09,0.2398223578929901,-1.0460492372512817,-156.1375732421875,0.046782515943050385,0.020511845126748085,0.0072765350341796875
121025075447.07578,d4:ca:6e:f1:77:09,0.24164016544818878,-1.0447574853897095,-156.14215087890625,0.025694791227579117,-0.012730241753160954,0.024649620056152344
121025092117.40918,d4:ca:6e:f1:77:09,0.24260444939136505,-1.0419813394546509,-156.1511688232422,0.022166341543197632,-0.03680400922894478,0.029933929443359375
121025108787.74258,d4:ca:6e:f1:77:09,0.244197279214859,-1.041430950164795,-156.16404724121094,0.0061457096599042416,-0.035565294325351715,0.02274799346923828
121025125458.07599,d4:ca:6e:f1:77:09,0.2452603280544281,-1.0407233238220215,-156.19189453125,-0.002899611834436655,-0.03749341890215874,0.020006179809570312
121025142128.4094,d4:ca:6e:f1:77:09,0.24625012278556824,-1.0410996675491333,-156.20260620117188,0.0343538299202919,-0.020708957687020302,0.02246379852294922
121025158798.7428,d4:ca:6e:f1:77:09,0.24763701856136322,-1.0394628047943115,-156.20408630371094,0.052952252328395844,0.004611644893884659,0.03191375732421875
121025175469.0762,d4:ca:6e:f1:77:09,0.24896982312202454,-1.038694143295288,-156.2574462890625,0.08149812370538712,0.01702418550848961,0.04162406921386719
121025192139.4096,d4:ca:6e:f1:77:09,0.2514379024505615,-1.0379329919815063,-156.2971649169922,0.09321091324090958,0.018647661432623863,0.01835918426513672
121025208809.74301,d4:ca:6e:f1:77:09,0.2525252103805542,-1.036180019378662,-156.34072875976562,0.046057041734457016,-0.003688512137159705,0.022356033325195312
121025225480.07642,d4:ca:6e:f1:77:09,0.25296205282211304,-1.034922480583191,-156.37197875976562,0.058225635439157486,-0.01786169968545437,0.014029502868652344
121025242150.40982,d4:ca:6e:f1:77:09,0.2551416754722595,-1.0348361730575562,-156.44789123535156,0.027093788608908653,-0.02927258238196373,0.02057647705078125
121025258820.74323,d4:ca:6e:f1:77:09,0.2577246129512787,-1.0335028171539307,-156.52000427246094,0.022062167525291443,-0.011732696555554867,0.03789043426513672
121025275491.07663,d4:ca:6e:f1:77:09,0.2600676715373993,-1.0313456058502197,-156.5917205810547,0.023916693404316902,-0.004508187994360924,0.03940105438232422
121025292161.41003,d4:ca:6e:f1:77:09,0.26240313053131104,-1.0301731824874878,-156.61239624023438,0.06164374202489853,0.01123621966689825,0.010388374328613281
121025308831.74344,d4:ca:6e:f1:77:09,0.26358696818351746,-1.0294177532196045,-156.735595703125,0.09064281731843948,0.017712190747261047,0.013915061950683594
121025325502.07684,d4:ca:6e:f1:77:09,0.2642466127872467,-1.0281100273132324,-156.87796020507812,0.08226419240236282,0.00245493371039629,0.02318859100341797
121025342172.41025,d4:ca:6e:f1:77:09,0.2654803991317749,-1.0260363817214966,-157.0684051513672,0.03410293534398079,-0.0010470655979588628,0.04384803771972656
121025358842.74365,d4:ca:6e:f1:77:09,0.26701444387435913,-1.0251798629760742,-157.2234344482422,0.021987255662679672,-0.03129223361611366,0.027399063110351562
121025375513.07706,d4:ca:6e:f1:77:09,0.2679756283760071,-1.0244492292404175,-157.39588928222656,0.003984893672168255,-0.02641715668141842,0.026447296142578125
121025392183.41046,d4:ca:6e:f1:77:09,0.27017003297805786,-1.0225857496261597,-157.56704711914062,0.019531425088644028,-0.00684870220720768,0.02069854736328125
121025408853.74387,d4:ca:6e:f1:77:09,0.27199456095695496,-1.0213074684143066,-157.9646453857422,0.039762768894433975,-0.004324420355260372,0.02458953857421875
121025425524.07727,d4:ca:6e:f1:77:09,0.2737606167793274,-1.0198720693588257,-158.1634063720703,0.05840100347995758,0.020568370819091797,0.014437675476074219
121025442194.41068,d4:ca:6e:f1:77:09,0.27517014741897583,-1.0185247659683228,-158.46246337890625,0.0787833109498024,0.01593373343348503,0.024422645568847656
121025458864.74408,d4:ca:6e:f1:77:09,0.27625471353530884,-1.0173726081848145,-158.84669494628906,0.06535757333040237,0.014241344295442104,0.008245468139648438
121025475535.07748,d4:ca:6e:f1:77:09,0.2769487798213959,-1.0159680843353271,-159.37982177734375,0.055558495223522186,0.011394801549613476,0.026508331298828125
121025492205.41089,d4:ca:6e:f1:77:09,0.27857810258865356,-1.0132099390029907,-160.1141815185547,0.04131833091378212,-0.0051048980094492435,0.035208702087402344
121025508875.7443,d4:ca:6e:f1:77:09,0.2799959182739258,-1.0110646486282349,-161.4801025390625,0.02098933234810829,-0.024516064673662186,0.013433456420898438
121025525546.0777,d4:ca:6e:f1:77:09,0.2822508215904236,-1.0103973150253296,-162.9644317626953,0.007046212442219257,-0.03460761904716492,0.02675342559814453
121025542216.4111,d4:ca:6e:f1:77:09,0.28289714455604553,-1.0089191198349,-163.8544158935547,-0.000692162022460252,-0.029950903728604317,0.041855812072753906
121025558886.7445,d4:ca:6e:f1:77:09,0.28497666120529175,-1.0084770917892456,-164.47618103027344,-0.018086420372128487,-0.026013817638158798,0.03361225128173828
121025575557.07791,d4:ca:6e:f1:77:09,0.2863910496234894,-1.0058547258377075,-165.7820281982422,0.008645273745059967,-0.04206018149852753,0.026126861572265625
121025592227.41132,d4:ca:6e:f1:77:09,0.2872977554798126,-1.004187822341919,-166.63648986816406,0.024001630023121834,-0.017642792314291,0.02252483367919922
121025608897.74472,d4:ca:6e:f1:77:09,0.28785544633865356,-1.0037641525268555,-167.20570373535156,0.04498562961816788,-0.0014866868732497096,0.03462696075439453
121025625568.07812,d4:ca:6e:f1:77:09,0.28855928778648376,-1.0037167072296143,-167.4202880859375,0.05461742356419563,-0.0011703871423378587,0.026848793029785156
121025641980.599,d4:ca:6e:f1:77:09,0.2903347909450531,-1.0021644830703735,-167.9971466064453,0.06229883059859276,-0.006893483456224203,0.03645133972167969
121025658650.9324,d4:ca:6e:f1:77:09,0.293255478143692,-1.001988172531128,-168.5797576904297,0.03997047618031502,-0.005366146098822355,0.03057384490966797
121025675321.26581,d4:ca:6e:f1:77:09,0.2954710125923157,-1.0011121034622192,-168.94566345214844,0.03780168294906616,-0.00398178119212389,0.02203369140625
121025691991.59921,d4:ca:6e:f1:77:09,0.296457439661026,-1.0005924701690674,-169.20033264160156,0.027455748990178108,-0.0005622835014946759,0.026239395141601562
121025708661.93262,d4:ca:6e:f1:77:09,0.29769399762153625,-0.9989613890647888,-170.2252197265625,0.04447425156831741,-0.007816574536263943,0.0242156982421875
121025725332.26602,d4:ca:6e:f1:77:09,0.29950612783432007,-0.9999887943267822,-170.4256591796875,0.05487176030874252,-0.01506149023771286,0.027581214904785156
121025742002.59943,d4:ca:6e:f1:77:09,0.3015899062156677,-0.9998046159744263,-170.66134643554688,0.012147427536547184,-0.018215499818325043,0.04288482666015625
121025758672.93283,d4:ca:6e:f1:77:09,0.30064883828163147,-0.9994010925292969,-170.81674194335938,0.01193195953965187,-0.012610556557774544,0.0264434814453125
121025775343.26624,d4:ca:6e:f1:77:09,0.3006933927536011,-0.9991456866264343,-171.27561950683594,0.05421621352434158,-0.00814890954643488,0.004960060119628906
121025792013.59964,d4:ca:6e:f1:77:09,0.3012012839317322,-0.998102068901062,-171.4193115234375,0.07090389728546143,0.009421736933290958,0.04465770721435547
121025808683.93304,d4:ca:6e:f1:77:09,0.3021886944770813,-0.9964826703071594,-171.54713439941406,0.09092704951763153,0.03476371988654137,0.04591560363769531
121025825354.26645,d4:ca:6e:f1:77:09,0.3025558292865753,-0.9949324131011963,-171.79312133789062,0.10102880746126175,0.011660555377602577,-0.0263824462890625
121025842024.59985,d4:ca:6e:f1:77:09,0.30517125129699707,-0.9949330687522888,-171.89663696289062,0.07611817866563797,-0.01599387638270855,0.03958892822265625
121025858694.93326,d4:ca:6e:f1:77:09,0.30591797828674316,-0.9927666187286377,-171.95883178710938,0.011750702746212482,-0.01790851168334484,0.033733367919921875
121025875365.26666,d4:ca:6e:f1:77:09,0.3073650896549225,-0.9917914867401123,-172.00596618652344,-0.05258012190461159,-0.02049717865884304,-0.0017948150634765625
121025892035.60007,d4:ca:6e:f1:77:09,0.3076379895210266,-0.9904448986053467,-172.05593872070312,-0.07151211053133011,-0.04392014816403389,0.021892547607421875
121025908705.93347,d4:ca:6e:f1:77:09,0.3083636462688446,-0.988370954990387,-172.09698486328125,-0.038401048630476,-0.0676768347620964,0.029310226440429688
121025925376.26688,d4:ca:6e:f1:77:09,0.3095073699951172,-0.9875760078430176,-172.13734436035156,-0.01414555311203003,-0.03338130936026573,0.0052890777587890625
121025941385.599,d4:ca:6e:f1:77:09,0.3096293807029724,-0.9868170022964478,-172.1785430908203,0.020732562988996506,0.0005015442729927599,0.05464744567871094
121025958055.9324,d4:ca:6e:f1:77:09,0.30891406536102295,-0.98542320728302,-172.21998596191406,0.06308235973119736,-0.005592237692326307,0.011083602905273438
121025974726.26581,d4:ca:6e:f1:77:09,0.3103555738925934,-0.9840256571769714,-172.25926208496094,0.10161785036325455,-0.008149521425366402,0.010378837585449219
121025991396.59921,d4:ca:6e:f1:77:09,0.30965909361839294,-0.9830007553100586,-172.29905700683594,0.07075881212949753,0.012650900520384312,0.04018115997314453
121026008066.93262,d4:ca:6e:f1:77:09,0.30823495984077454,-0.9812438488006592,-172.33700561523438,0.04393088072538376,0.0011327335378155112,0.00077056884765625
121026024737.26602,d4:ca:6e:f1:77:09,0.30858713388442993,-0.9796832799911499,-172.37403869628906,0.029943419620394707,-0.01780887320637703,0.013669967651367188
121026041407.59943,d4:ca:6e:f1:77:09,0.3097184896469116,-0.9778964519500732,-172.4112548828125,0.015076390467584133,-0.025887299329042435,0.036407470703125
121026058077.93283,d4:ca:6e:f1:77:09,0.3096213638782501,-0.9765748977661133,-172.4479217529297,-0.004812403116375208,-0.007871565409004688,0.03582954406738281
121026074748.26624,d4:ca:6e:f1:77:09,0.31084948778152466,-0.9757450222969055,-172.48748779296875,-0.011394057422876358,-0.008515216410160065,0.03095531463623047
121026091418.59964,d4:ca:6e:f1:77:09,0.31071600317955017,-0.9754370450973511,-172.5268096923828,0.004317092709243298,-0.029248572885990143,0.02274608612060547
121026108088.93304,d4:ca:6e:f1:77:09,0.3120515048503876,-0.9739830493927002,-172.56668090820312,0.037152182310819626,-0.02892238460481167,0.02138042449951172
121026124759.26645,d4:ca:6e:f1:77:09,0.311455100774765,-0.9730585217475891,-172.60623168945312,0.022251185029745102,-0.01512639969587326,0.045548439025878906
121026141429.59985,d4:ca:6e:f1:77:09,0.31201058626174927,-0.9710610508918762,-172.64627075195312,0.05231093242764473,-0.005902000702917576,0.033843994140625
121026158099.93326,d4:ca:6e:f1:77:09,0.3137419819831848,-0.9709953665733337,-172.68490600585938,0.07305224984884262,-0.003524782368913293,0.018756866455078125
121026174770.26666,d4:ca:6e:f1:77:09,0.3139035105705261,-0.968716025352478,-172.72032165527344,0.08228661864995956,0.0050068264827132225,0.030426025390625
121026191440.60007,d4:ca:6e:f1:77:09,0.3142355680465698,-0.9671554565429688,-172.7549591064453,0.06794307380914688,-0.0023646815679967403,0.024427413940429688
121026208110.93347,d4:ca:6e:f1:77:09,0.3140034079551697,-0.9665907621383667,-172.78829956054688,0.03635566309094429,0.002364767948165536,0.024570465087890625
121026224781.26688,d4:ca:6e:f1:77:09,0.3147470951080322,-0.9646008610725403,-172.8251190185547,0.005007075611501932,-0.03815414384007454,0.026190757751464844
121026241451.60028,d4:ca:6e:f1:77:09,0.3153495490550995,-0.9637446999549866,-172.8615264892578,-0.006586841307580471,-0.036983031779527664,0.019852638244628906
121026258121.93369,d4:ca:6e:f1:77:09,0.3161616027355194,-0.9631776809692383,-172.8988800048828,-0.026356317102909088,-0.035522472113370895,0.026793479919433594
121026274792.26709,d4:ca:6e:f1:77:09,0.3173098564147949,-0.9621020555496216,-172.9372100830078,-0.01498058345168829,-0.013815290294587612,0.02231121063232422
121026291462.6005,d4:ca:6e:f1:77:09,0.31797313690185547,-0.9603368639945984,-172.97708129882812,-0.024302145466208458,-0.034387730062007904,0.021668434143066406
121026308132.9339,d4:ca:6e:f1:77:09,0.32022911310195923,-0.9592870473861694,-173.0196533203125,-0.00049377087270841,-0.0314684733748436,0.032729148864746094
121026324803.2673,d4:ca:6e:f1:77:09,0.3212330639362335,-0.957928478717804,-173.06182861328125,0.02743237279355526,-0.019009381532669067,0.019285202026367188
121026341473.60071,d4:ca:6e:f1:77:09,0.322744220495224,-0.9569372534751892,-173.10287475585938,0.04795052111148834,-0.00912548042833805,0.023710250854492188
121026358143.93411,d4:ca:6e:f1:77:09,0.32368001341819763,-0.9558423161506653,-173.143310546875,0.06165638566017151,-0.005635435692965984,0.03460502624511719
121026374814.26752,d4:ca:6e:f1:77:09,0.3235619366168976,-0.9547237753868103,-173.18333435058594,0.07045849412679672,-0.017773402854800224,0.021604537963867188
121026391408,d4:ca:6e:f1:77:09,0.32510149478912354,-0.9554336667060852,-173.22207641601562,0.04635884240269661,-0.016200697049498558,0.024785995483398438
121026408078.3334,d4:ca:6e:f1:77:09,0.32420894503593445,-0.9541767835617065,-173.26077270507812,0.016463017091155052,-0.00888027437031269,0.0282745361328125
121026424748.66681,d4:ca:6e:f1:77:09,0.3242589831352234,-0.9533895254135132,-173.29832458496094,0.019450480118393898,-0.013130453415215015,0.031238555908203125
121026441419.00021,d4:ca:6e:f1:77:09,0.325302392244339,-0.952812671661377,-173.33848571777344,0.004718943499028683,-0.004960121586918831,0.033820152282714844
121026458089.33362,d4:ca:6e:f1:77:09,0.3263869881629944,-0.9506793022155762,-173.3775177001953,0.0065939100459218025,-0.0136879188939929,0.02512359619140625
121026474759.66702,d4:ca:6e:f1:77:09,0.32815250754356384,-0.9505625367164612,-173.41725158691406,0.029357360675930977,-0.006440169643610716,0.021665573120117188
121026491430.00043,d4:ca:6e:f1:77:09,0.3269040882587433,-0.9495303630828857,-173.45553588867188,0.05347047373652458,-0.009646405465900898,0.032806396484375
121026508100.33383,d4:ca:6e:f1:77:09,0.3270677924156189,-0.9487685561180115,-173.4935302734375,0.05931146815419197,0.0008354403544217348,0.039917945861816406
121026524770.66724,d4:ca:6e:f1:77:09,0.3273278772830963,-0.9480416774749756,-173.53152465820312,0.03417808562517166,-0.006089594680815935,0.03335857391357422
121026541441.00064,d4:ca:6e:f1:77:09,0.32643377780914307,-0.9476199150085449,-173.56788635253906,0.005519238766282797,-0.0120541425421834,0.032906532287597656
121026558111.33405,d4:ca:6e:f1:77:09,0.32724863290786743,-0.9467068910598755,-173.6053924560547,-0.008294450119137764,-0.016323277726769447,0.015839576721191406
121026574781.66745,d4:ca:6e:f1:77:09,0.3275022804737091,-0.9455545544624329,-173.64401245117188,-0.009640294127166271,-0.017416968941688538,0.022263526916503906
121026591452.00085,d4:ca:6e:f1:77:09,0.3282538652420044,-0.9439176321029663,-173.68226623535156,-0.005039116367697716,-0.010326504707336426,0.025821685791015625
121026608122.33426,d4:ca:6e:f1:77:09,0.33161792159080505,-0.9426253437995911,-173.72178649902344,0.005939573515206575,-0.015241755172610283,0.032596588134765625
121026624792.66766,d4:ca:6e:f1:77:09,0.33191508054733276,-0.9410648345947266,-173.76123046875,0.016934996470808983,-0.011014945805072784,0.031164169311523438
121026641463.00107,d4:ca:6e:f1:77:09,0.33160585165023804,-0.9400615692138672,-173.80075073242188,0.03860592469573021,-0.00375761603936553,0.03061199188232422
121026658133.33447,d4:ca:6e:f1:77:09,0.33081528544425964,-0.9389689564704895,-173.83973693847656,0.03811096400022507,-0.0009377857204526663,0.025827407836914062
121026674803.66788,d4:ca:6e:f1:77:09,0.3302050828933716,-0.9379396438598633,-173.8780517578125,0.025676432996988297,-0.006040344946086407,0.038417816162109375
121026691474.00128,d4:ca:6e:f1:77:09,0.3315291106700897,-0.937269389629364,-173.9180145263672,0.019897600635886192,-0.0090646306052804,0.040187835693359375
121026708144.33469,d4:ca:6e:f1:77:09,0.332247793674469,-0.9359824657440186,-173.95716857910156,0.0197241622954607,-0.007919146679341793,0.02653980255126953
121026724814.66809,d4:ca:6e:f1:77:09,0.33183643221855164,-0.9341906905174255,-173.99588012695312,0.02612440101802349,-0.01012311689555645,0.03199291229248047
121026741485.0015,d4:ca:6e:f1:77:09,0.33253341913223267,-0.9337197542190552,-174.03549194335938,0.022698281332850456,-0.015430272556841373,0.02282428741455078
121026758155.3349,d4:ca:6e:f1:77:09,0.332552433013916,-0.9324856400489807,-174.0752716064453,0.02254597097635269,-0.01728064939379692,0.013918876647949219
121026774825.6683,d4:ca:6e:f1:77:09,0.33355191349983215,-0.9331011772155762,-174.11453247070312,0.01982479728758335,-0.007803458254784346,0.018606185913085938
121026791496.00171,d4:ca:6e:f1:77:09,0.33391162753105164,-0.9323083758354187,-174.1539306640625,0.002511286409571767,-0.0029038104694336653,0.020200729370117188
121026808166.33511,d4:ca:6e:f1:77:09,0.33525350689888,-0.9308603405952454,-174.1931915283203,0.01065846998244524,-0.008280297741293907,0.020613670349121094
121026824836.66852,d4:ca:6e:f1:77:09,0.3345564305782318,-0.9304298162460327,-174.23211669921875,0.023990770801901817,-0.025387806817889214,0.04204559326171875
121026841507.00192,d4:ca:6e:f1:77:09,0.3358088731765747,-0.9298529028892517,-174.27125549316406,0.03794395178556442,-0.005536945071071386,0.028985023498535156
121026858177.33533,d4:ca:6e:f1:77:09,0.3368210792541504,-0.9282286167144775,-174.30906677246094,0.048260416835546494,-0.0012964349007233977,0.007503509521484375
121026874847.66873,d4:ca:6e:f1:77:09,0.3387201130390167,-0.9268247485160828,-174.3473663330078,0.02030404657125473,-0.014827543869614601,0.03336811065673828
121026891518.00214,d4:ca:6e:f1:77:09,0.3394837975502014,-0.9255752563476562,-174.3859405517578,0.02353978343307972,-0.006923687644302845,0.031838417053222656
121026908188.33554,d4:ca:6e:f1:77:09,0.3393424153327942,-0.9253228902816772,-174.4243927001953,0.01672022044658661,-0.003676696913316846,0.022245407104492188
121026924858.66895,d4:ca:6e:f1:77:09,0.3398834764957428,-0.9249237179756165,-174.46339416503906,0.014621078968048096,-0.009291836060583591,0.02557659149169922
121026941529.00235,d4:ca:6e:f1:77:09,0.3406655192375183,-0.9235596060752869,-174.50350952148438,0.006882034707814455,-0.017203314229846,0.02372264862060547
121026958199.33575,d4:ca:6e:f1:77:09,0.3418717384338379,-0.9224815964698792,-174.5425567626953,0.012390434741973877,-0.011639650911092758,0.027591705322265625
121026974869.66916,d4:ca:6e:f1:77:09,0.3425368666648865,-0.921483039855957,-174.58200073242188,0.009532708674669266,-0.006417537573724985,0.03896903991699219
121026991540.00256,d4:ca:6e:f1:77:09,0.3431174159049988,-0.9209551811218262,-174.62059020996094,0.028520165011286736,-0.016246477141976357,0.03305530548095703
121027008210.33597,d4:ca:6e:f1:77:09,0.34337031841278076,-0.9199958443641663,-174.65859985351562,0.02984151430428028,-0.00028859887970611453,0.002033233642578125
121027024880.66937,d4:ca:6e:f1:77:09,0.34448519349098206,-0.9175349473953247,-174.69790649414062,0.023556185886263847,-0.004872051067650318,0.03265666961669922
121027041551.00278,d4:ca:6e:f1:77:09,0.34502875804901123,-0.9156426787376404,-174.73568725585938,0.02344372868537903,-0.003990403842180967,0.019853591918945312
121027058221.33618,d4:ca:6e:f1:77:09,0.3460516333580017,-0.9151990413665771,-174.7743682861328,-0.0026450951118022203,-0.004902291111648083,0.03617095947265625
121027074891.66959,d4:ca:6e:f1:77:09,0.34605950117111206,-0.9145653247833252,-174.81243896484375,0.009722717106342316,-0.0168647188693285,0.026197433471679688
121027091562.00299,d4:ca:6e:f1:77:09,0.3458169102668762,-0.9130198955535889,-174.85072326660156,0.00800950825214386,-0.008925152011215687,0.024156570434570312
121027108232.3364,d4:ca:6e:f1:77:09,0.3467324376106262,-0.9125284552574158,-174.888671875,0.014480402693152428,-0.009496686048805714,0.02619171142578125
121027124902.6698,d4:ca:6e:f1:77:09,0.3470168113708496,-0.9111092686653137,-174.92796325683594,0.012174228206276894,-0.023204481229186058,0.03417682647705078
121027141573.0032,d4:ca:6e:f1:77:09,0.3487662374973297,-0.9093267917633057,-174.9673614501953,0.01047755777835846,-0.014231953769922256,0.03904533386230469
121027158243.33661,d4:ca:6e:f1:77:09,0.350546270608902,-0.9088985323905945,-175.00723266601562,0.020923836156725883,-0.02861473709344864,0.019151687622070312
121027174913.67001,d4:ca:6e:f1:77:09,0.3510988652706146,-0.9083622097969055,-175.04551696777344,0.0293564610183239,-0.002549961907789111,0.04084014892578125
121027191584.00342,d4:ca:6e:f1:77:09,0.3518998324871063,-0.9074035286903381,-175.08389282226562,0.0362098403275013,0.009965281933546066,0.013907432556152344
121027208254.33682,d4:ca:6e:f1:77:09,0.3543863892555237,-0.9073495268821716,-175.12261962890625,0.0032057214993983507,-0.015327288769185543,0.029256820678710938
121027224924.67023,d4:ca:6e:f1:77:09,0.35553789138793945,-0.9073574542999268,-175.16246032714844,-0.015880480408668518,-0.013423996977508068,0.0220794677734375
121027241595.00363,d4:ca:6e:f1:77:09,0.3556915521621704,-0.9066729545593262,-175.202392578125,-0.011607176624238491,-0.002558221807703376,0.010083198547363281
121027258265.33704,d4:ca:6e:f1:77:09,0.3559304475784302,-0.9051735997200012,-175.2425079345703,0.008025897666811943,-0.014093710109591484,0.0369415283203125
121027274935.67044,d4:ca:6e:f1:77:09,0.3581111431121826,-0.9049240946769714,-175.2821807861328,0.0019670280162245035,-0.006816042587161064,0.022912979125976562
121027291606.00385,d4:ca:6e:f1:77:09,0.35781729221343994,-0.9039965867996216,-175.32252502441406,0.03080292046070099,-0.015297951176762581,0.031015396118164062
121027308276.33725,d4:ca:6e:f1:77:09,0.3569464683532715,-0.903959333896637,-175.36111450195312,0.020687850192189217,-0.01023322343826294,0.012342453002929688
121027324946.67065,d4:ca:6e:f1:77:09,0.35688695311546326,-0.9027920961380005,-175.40089416503906,0.016711410135030746,-0.006631097756326199,0.026430130004882812
121027341617.00406,d4:ca:6e:f1:77:09,0.3570939302444458,-0.9029697179794312,-175.440185546875,0.029800601303577423,0.0020233162213116884,0.027826309204101562
121027358287.33746,d4:ca:6e:f1:77:09,0.35672175884246826,-0.9025258421897888,-175.4789581298828,0.021347805857658386,-0.007961878553032875,0.03069019317626953
121027374957.67087,d4:ca:6e:f1:77:09,0.3574323058128357,-0.9019705653190613,-175.51837158203125,0.004524176474660635,-0.0038161524571478367,0.023681640625
121027391628.00427,d4:ca:6e:f1:77:09,0.3593982756137848,-0.9014100432395935,-175.5578155517578,0.016019310802221298,-0.007467291783541441,0.03263568878173828
121027408298.33768,d4:ca:6e:f1:77:09,0.36150282621383667,-0.9005324840545654,-175.596923828125,0.008811989799141884,0.007574953604489565,0.021491050720214844
121027424968.67108,d4:ca:6e:f1:77:09,0.36162152886390686,-0.8994775414466858,-175.63626098632812,0.0310637466609478,0.0029082375112921,0.025890350341796875
121027441639.00449,d4:ca:6e:f1:77:09,0.36320966482162476,-0.8997482061386108,-175.67315673828125,0.014033352956175804,0.007328931242227554,0.04224109649658203
121027458309.33789,d4:ca:6e:f1:77:09,0.3631066679954529,-0.8993579149246216,-175.71185302734375,0.006604200229048729,-0.01343666110187769,0.013826370239257812
121027474979.6713,d4:ca:6e:f1:77:09,0.3641796410083771,-0.8987410664558411,-175.75123596191406,0.011034383438527584,-0.01836695708334446,0.02432727813720703
121027491650.0047,d4:ca:6e:f1:77:09,0.36555686593055725,-0.8977945446968079,-175.79014587402344,-0.003110562451183796,-0.009318051859736443,0.018726348876953125
121027508320.3381,d4:ca:6e:f1:77:09,0.36614635586738586,-0.8974189758300781,-175.82977294921875,0.01407124474644661,-0.012731664814054966,0.026140213012695312
121027524990.67151,d4:ca:6e:f1:77:09,0.3671809732913971,-0.8966286182403564,-175.86727905273438,0.022258419543504715,-0.011261449195444584,0.018665313720703125
121027541661.00491,d4:ca:6e:f1:77:09,0.3673343360424042,-0.8959766626358032,-175.90586853027344,0.01752113550901413,0.0006156832678243518,0.028344154357910156
121027558331.33832,d4:ca:6e:f1:77:09,0.3675919473171234,-0.8957027196884155,-175.94375610351562,0.02785860374569893,-0.0093231825158,0.025304794311523438
121027575001.67172,d4:ca:6e:f1:77:09,0.3693677484989166,-0.8947241902351379,-175.98208618164062,0.0073319836519658566,0.002040054416283965,0.030150413513183594
121027591672.00513,d4:ca:6e:f1:77:09,0.36837857961654663,-0.894145667552948,-176.02005004882812,0.019778860732913017,-0.006404846906661987,0.030473709106445312
121027608342.33853,d4:ca:6e:f1:77:09,0.3672538995742798,-0.8940311074256897,-176.0580596923828,0.0068113538436591625,-0.012947943061590195,0.04106712341308594
121027625012.67194,d4:ca:6e:f1:77:09,0.3682427406311035,-0.8925164341926575,-176.0963897705078,-0.00020671106176450849,-0.008895587176084518,0.018117904663085938
121027641683.00534,d4:ca:6e:f1:77:09,0.36771896481513977,-0.8921407461166382,-176.13536071777344,-0.011342732235789299,-0.015389783307909966,0.0031757354736328125
121027658353.33875,d4:ca:6e:f1:77:09,0.36794325709342957,-0.890592098236084,-176.1754608154297,-0.005790559574961662,-0.011633582413196564,0.03600311279296875
121027675023.67215,d4:ca:6e:f1:77:09,0.36746782064437866,-0.8895167112350464,-176.2147979736328,0.017084481194615364,-0.005810038652271032,0.022922515869140625
121027691694.00555,d4:ca:6e:f1:77:09,0.36749815940856934,-0.8886311054229736,-176.2545166015625,0.019829392433166504,0.0009580455953255296,0.01610279083251953
121027708364.33896,d4:ca:6e:f1:77:09,0.3689330518245697,-0.88811194896698,-176.29367065429688,0.01993093080818653,-0.011197742074728012,0.034496307373046875
121027725034.67236,d4:ca:6e:f1:77:09,0.3676876723766327,-0.8887173533439636,-176.3330841064453,0.008600468747317791,-0.00877449382096529,0.006244659423828125
121027741705.00577,d4:ca:6e:f1:77:09,0.36903199553489685,-0.8883531093597412,-176.3733367919922,0.006462057586759329,0.0027689789421856403,0.030069351196289062
121027758375.33917,d4:ca:6e:f1:77:09,0.3700428307056427,-0.8868141174316406,-176.41285705566406,0.005661492235958576,-0.0016348084900528193,0.019089698791503906
121027775045.67258,d4:ca:6e:f1:77:09,0.37207189202308655,-0.8866003751754761,-176.45184326171875,0.015614580363035202,-0.0019503118237480521,0.022035598754882812
121027791716.00598,d4:ca:6e:f1:77:09,0.37344425916671753,-0.8862693905830383,-176.49057006835938,0.020733999088406563,-0.014442740939557552,0.026212692260742188
121027808386.33939,d4:ca:6e:f1:77:09,0.3746284246444702,-0.8854044675827026,-176.52926635742188,0.0029014030005782843,0.0075507923029363155,0.020104408264160156
121027825056.67279,d4:ca:6e:f1:77:09,0.3751274049282074,-0.8839520215988159,-176.56790161132812,0.009104090742766857,0.00009804470028029755,0.02929973602294922
121027841727.0062,d4:ca:6e:f1:77:09,0.3763065040111542,-0.8821552991867065,-176.6072540283203,0.009308886714279652,-0.006528378464281559,0.026004791259765625
121027858397.3396,d4:ca:6e:f1:77:09,0.37687382102012634,-0.8820915222167969,-176.6463623046875,0.019310874864459038,-0.010802503675222397,0.021871566772460938
121027875067.673,d4:ca:6e:f1:77:09,0.37726911902427673,-0.880114734172821,-176.68502807617188,0.022320231422781944,-0.003032349282875657,0.033306121826171875
121027891738.00641,d4:ca:6e:f1:77:09,0.37862709164619446,-0.879703938961029,-176.72232055664062,0.015221877954900265,-0.0009288641740567982,0.025938987731933594
121027908408.33981,d4:ca:6e:f1:77:09,0.3786250948905945,-0.8785044550895691,-176.7618408203125,-0.002897318685427308,-0.0034425316844135523,0.009847640991210938
121027925078.67322,d4:ca:6e:f1:77:09,0.3790013790130615,-0.878865659236908,-176.80123901367188,0.003582634963095188,-0.022395843639969826,0.026014328002929688
121027941749.00662,d4:ca:6e:f1:77:09,0.3792725205421448,-0.8778960108757019,-176.84005737304688,0.005309611093252897,-0.010263352654874325,0.022520065307617188
121027958419.34003,d4:ca:6e:f1:77:09,0.38039475679397583,-0.8777012228965759,-176.880126953125,0.004027344286441803,-0.0023765594232827425,0.016412734985351562
121027975089.67343,d4:ca:6e:f1:77:09,0.38071009516716003,-0.8771083354949951,-176.92062377929688,0.020834997296333313,-0.004254958592355251,0.02629375457763672
121027991760.00684,d4:ca:6e:f1:77:09,0.38157889246940613,-0.8761693835258484,-176.958984375,0.026570577174425125,0.00382593902759254,0.015558242797851562
121028008430.34024,d4:ca:6e:f1:77:09,0.38198813796043396,-0.874756395816803,-176.99742126464844,0.021572044119238853,-0.0056317937560379505,0.02414226531982422
121028025100.67365,d4:ca:6e:f1:77:09,0.38215985894203186,-0.8745816946029663,-177.03517150878906,0.009041116572916508,-0.005472607910633087,0.031538963317871094
121028041771.00705,d4:ca:6e:f1:77:09,0.3830775022506714,-0.8747075200080872,-177.0733184814453,-0.0017620021244511008,-0.008098796010017395,0.024933815002441406
121028058441.34045,d4:ca:6e:f1:77:09,0.3830423057079315,-0.8737733364105225,-177.11209106445312,-0.0033405690919607878,0.0005137897096574306,0.029915809631347656
121028075111.67386,d4:ca:6e:f1:77:09,0.3837583065032959,-0.8736820816993713,-177.1510772705078,-0.007693914696574211,-0.011349250562489033,0.028194427490234375
121028091782.00726,d4:ca:6e:f1:77:09,0.3831399083137512,-0.872607946395874,-177.19090270996094,0.0005431700847111642,-0.012738016434013844,0.03170585632324219
121028108452.34067,d4:ca:6e:f1:77:09,0.3832792043685913,-0.8733760118484497,-177.22967529296875,-0.004139990545809269,-0.0001868042309070006,0.022294998168945312
121028125122.67407,d4:ca:6e:f1:77:09,0.38445281982421875,-0.8722801804542542,-177.2698974609375,0.011434035375714302,-0.003415226237848401,0.0228729248046875
121028141793.00748,d4:ca:6e:f1:77:09,0.38274404406547546,-0.8720234632492065,-177.31016540527344,-0.0115573201328516,-0.004738867748528719,0.02512836456298828
121028158463.34088,d4:ca:6e:f1:77:09,0.3829108476638794,-0.8712495565414429,-177.34860229492188,0.009067405015230179,-0.0033496185205876827,0.024934768676757812
121028175133.67429,d4:ca:6e:f1:77:09,0.38365086913108826,-0.8703238368034363,-177.3887481689453,0.013883701525628567,-0.01829400844871998,0.007877349853515625
121028191804.00769,d4:ca:6e:f1:77:09,0.38347288966178894,-0.8686816096305847,-177.42742919921875,-0.008247851394116879,0.0008083519642241299,0.03586387634277344
121028208474.3411,d4:ca:6e:f1:77:09,0.3830685317516327,-0.8677268624305725,-177.46749877929688,0.00408676965162158,-0.0018409256590530276,0.04065990447998047
121028225144.6745,d4:ca:6e:f1:77:09,0.3842434287071228,-0.8662362098693848,-177.5078125,-0.03518211469054222,0.0019599965307861567,0.027518272399902344
121028241815.0079,d4:ca:6e:f1:77:09,0.3837728798389435,-0.8652917742729187,-177.55026245117188,-0.03738981485366821,-0.014490917325019836,0.019613265991210938
121028258485.34131,d4:ca:6e:f1:77:09,0.3822179138660431,-0.8658290505409241,-177.591552734375,-0.026507612317800522,-0.009187040850520134,0.0159454345703125
121028275155.67471,d4:ca:6e:f1:77:09,0.3833625614643097,-0.8645827174186707,-177.63433837890625,0.0036511493381112814,-0.007690185680985451,0.024627685546875
121028291826.00812,d4:ca:6e:f1:77:09,0.3845011591911316,-0.8642787933349609,-177.67478942871094,0.03555179387331009,0.0022717835381627083,0.02245044708251953
121028308496.34152,d4:ca:6e:f1:77:09,0.3841245472431183,-0.8641613125801086,-177.71609497070312,0.030596021562814713,0.003960750065743923,0.015385627746582031
121028325166.67493,d4:ca:6e:f1:77:09,0.3862808048725128,-0.8653234243392944,-177.75743103027344,0.021559594199061394,-0.009603884071111679,0.04443931579589844
121028341837.00833,d4:ca:6e:f1:77:09,0.3866312801837921,-0.8649513721466064,-177.7977294921875,0.008886598981916904,-0.0037626030389219522,0.03792285919189453
121028358507.34174,d4:ca:6e:f1:77:09,0.386342853307724,-0.8649190664291382,-177.8372039794922,-0.0034404934849590063,0.007601459044963121,0.036869049072265625
121028375177.67514,d4:ca:6e:f1:77:09,0.3857648968696594,-0.8646376132965088,-177.8772735595703,0.0036005338188260794,-0.0002685377257876098,0.0325927734375
121028391848.00854,d4:ca:6e:f1:77:09,0.38483038544654846,-0.8640729784965515,-177.91795349121094,0.023677172139286995,-0.00282021751627326,0.028421401977539062
121028408518.34195,d4:ca:6e:f1:77:09,0.38473057746887207,-0.8638474941253662,-177.9582977294922,-0.004273288883268833,0.005285278894007206,0.025933265686035156
121028425188.67535,d4:ca:6e:f1:77:09,0.38454946875572205,-0.8638650178909302,-177.99948120117188,-0.006314609665423632,-0.005438372492790222,0.015802383422851562
121028441859.00876,d4:ca:6e:f1:77:09,0.38428395986557007,-0.8624109029769897,-178.0399932861328,-0.011607939377427101,-0.008918610401451588,0.01885223388671875
121028458529.34216,d4:ca:6e:f1:77:09,0.3844909965991974,-0.8627830147743225,-178.0804443359375,0.0009908531792461872,-0.009803098626434803,0.02387237548828125
121028475199.67557,d4:ca:6e:f1:77:09,0.3831203281879425,-0.8606005311012268,-178.121826171875,-0.0007286205654963851,-0.017470186576247215,0.015215873718261719
121028491570.1,d4:ca:6e:f1:77:09,0.3832815885543823,-0.8603069186210632,-178.16246032714844,-0.0034819464199244976,-0.0003258324577473104,0.018464088439941406
121028508240.43341,d4:ca:6e:f1:77:09,0.38240301609039307,-0.8603095412254333,-178.20372009277344,0.0008677184814587235,-0.004181282129138708,0.03986930847167969
121028524910.76682,d4:ca:6e:f1:77:09,0.3814436197280884,-0.8584929704666138,-178.24441528320312,0.022923387587070465,-0.008353466168045998,0.025694847106933594
121028541581.10022,d4:ca:6e:f1:77:09,0.38220489025115967,-0.8579360842704773,-178.2859649658203,0.0033773428294807673,-0.006745994556695223,0.01646900177001953
121028558251.43362,d4:ca:6e:f1:77:09,0.38269567489624023,-0.8583990931510925,-178.3256072998047,0.018575258553028107,-0.0025835910346359015,0.014336585998535156
121028574921.76703,d4:ca:6e:f1:77:09,0.3842076361179352,-0.85760098695755,-178.36578369140625,0.012024333700537682,-0.008217360824346542,0.016600608825683594
121028591592.10043,d4:ca:6e:f1:77:09,0.38512372970581055,-0.856390655040741,-178.40768432617188,0.004550306126475334,-0.011710821650922298,0.03001689910888672
121028608262.43384,d4:ca:6e:f1:77:09,0.38543274998664856,-0.8557080030441284,-178.44894409179688,0.007129434030503035,0.00855964981019497,0.023965835571289062
121028624932.76724,d4:ca:6e:f1:77:09,0.3869927227497101,-0.8556768894195557,-178.49044799804688,0.01676206663250923,-0.0017787415999919176,0.021795272827148438
121028641381.7,d4:ca:6e:f1:77:09,0.3872230052947998,-0.8551435470581055,-178.53057861328125,0.0364607535302639,0.0012629854027181864,0.030900001525878906
121028658052.0334,d4:ca:6e:f1:77:09,0.3866802752017975,-0.8558980226516724,-178.56991577148438,0.04144219309091568,0.0009371050400659442,0.023633956909179688
121028674722.3668,d4:ca:6e:f1:77:09,0.3871226906776428,-0.8560163974761963,-178.6082000732422,0.03761706128716469,0.00581324240192771,0.023588180541992188
121028691392.70021,d4:ca:6e:f1:77:09,0.3865776062011719,-0.8546015024185181,-178.6460418701172,0.0013236954109743237,0.014828020706772804,0.029648780822753906
121028708063.03362,d4:ca:6e:f1:77:09,0.38660717010498047,-0.8537870049476624,-178.6848602294922,-0.012052170000970364,0.000015691308362875134,0.02639007568359375
121028724733.36702,d4:ca:6e:f1:77:09,0.3869650065898895,-0.8530546426773071,-178.72389221191406,-0.016308164224028587,-0.0019874772988259792,0.035332679748535156
121028741403.70042,d4:ca:6e:f1:77:09,0.3871062397956848,-0.8530460000038147,-178.7622833251953,0.008599091321229935,-0.0026784848887473345,0.02357006072998047
121028758074.03383,d4:ca:6e:f1:77:09,0.38679662346839905,-0.8537395000457764,-178.80099487304688,-0.011529583483934402,0.002291835146024823,0.02651691436767578
121028774744.36723,d4:ca:6e:f1:77:09,0.38774895668029785,-0.8527816534042358,-178.84030151367188,-0.004439933691173792,0.000567991693969816,0.016590118408203125
121028791414.70064,d4:ca:6e:f1:77:09,0.3861720561981201,-0.8525251746177673,-178.88046264648438,0.0005368014681152999,-0.0029836867470294237,0.0109710693359375
121028808085.03404,d4:ca:6e:f1:77:09,0.38618791103363037,-0.8514066934585571,-178.91954040527344,0.007226863410323858,-0.008523011580109596,0.03612518310546875
121028824755.36745,d4:ca:6e:f1:77:09,0.3866615295410156,-0.8507664203643799,-178.9573974609375,0.0037560570053756237,0.0019598831422626972,0.022699356079101562
121028841425.70085,d4:ca:6e:f1:77:09,0.38650381565093994,-0.8502950668334961,-178.99575805664062,-0.0012798921670764685,-0.01046436931937933,0.016015052795410156
121028858096.03426,d4:ca:6e:f1:77:09,0.3871724009513855,-0.8501540422439575,-179.0343017578125,0.006840654648840427,-0.02346448414027691,0.01378631591796875
121028874766.36766,d4:ca:6e:f1:77:09,0.3879009485244751,-0.8500246405601501,-179.07321166992188,-0.0057395645417273045,0.005168794188648462,0.016943931579589844
121028891436.70107,d4:ca:6e:f1:77:09,0.3863905966281891,-0.8503589034080505,-179.11219787597656,-0.005731573328375816,-0.008189119398593903,0.04728507995605469
121028908107.03447,d4:ca:6e:f1:77:09,0.3855218291282654,-0.8487889170646667,-179.1495361328125,0.00395589554682374,0.0015543142799288034,0.022623062133789062
121028924777.36787,d4:ca:6e:f1:77:09,0.386245995759964,-0.8474351167678833,-179.18775939941406,0.011017141863703728,0.0025418922305107117,0.016841888427734375
121028941447.70128,d4:ca:6e:f1:77:09,0.38587138056755066,-0.8466077446937561,-179.2276153564453,0.005633754655718803,0.0026630954816937447,0.03423500061035156
121028958118.03468,d4:ca:6e:f1:77:09,0.38450706005096436,-0.8452672958374023,-179.26609802246094,0.01835898496210575,0.0011628217762336135,0.037151336669921875
121028974788.36809,d4:ca:6e:f1:77:09,0.3850773572921753,-0.8442288637161255,-179.3046875,0.011430821381509304,0.002805305877700448,0.030406951904296875
121028991458.70149,d4:ca:6e:f1:77:09,0.3873727321624756,-0.8450006246566772,-179.3428192138672,0.0009834321681410074,0.0069327750243246555,0.019598960876464844
121029008129.0349,d4:ca:6e:f1:77:09,0.38801583647727966,-0.8450755476951599,-179.3806915283203,-0.01836162991821766,-0.007134792394936085,0.03996562957763672
121029024799.3683,d4:ca:6e:f1:77:09,0.3884737491607666,-0.843944787979126,-179.41970825195312,-0.007096084300428629,0.0025044481735676527,0.01912403106689453
121029041469.7017,d4:ca:6e:f1:77:09,0.38863199949264526,-0.8439374566078186,-179.45867919921875,-0.027350429445505142,-0.003618116257712245,0.015837669372558594
121029058140.03511,d4:ca:6e:f1:77:09,0.3891392946243286,-0.8442250490188599,-179.49725341796875,-0.01142655499279499,-0.00853400956839323,0.028632164001464844
121029074810.36852,d4:ca:6e:f1:77:09,0.3905005156993866,-0.8446900248527527,-179.53765869140625,0.002180899726226926,-0.0016614401247352362,0.016198158264160156
121029091480.70192,d4:ca:6e:f1:77:09,0.39191949367523193,-0.843437671661377,-179.57725524902344,-0.00584799237549305,-0.005023060366511345,0.02020549774169922
121029108151.03532,d4:ca:6e:f1:77:09,0.3904604911804199,-0.8428703546524048,-179.6167449951172,0.005526829045265913,0.010076259262859821,0.03169727325439453
121029124821.36873,d4:ca:6e:f1:77:09,0.3910161852836609,-0.8429773449897766,-179.65606689453125,0.00933742057532072,-0.004044456407427788,0.034178733825683594
121029141491.70213,d4:ca:6e:f1:77:09,0.39079371094703674,-0.8432182669639587,-179.69692993164062,-0.012069704942405224,-0.0025486494414508343,0.01686859130859375
121029158162.03554,d4:ca:6e:f1:77:09,0.38948649168014526,-0.8436868190765381,-179.736572265625,-0.006578011438250542,0.0020397938787937164,0.009557723999023438
121029174832.36894,d4:ca:6e:f1:77:09,0.38968518376350403,-0.8437040448188782,-179.7764892578125,-0.009637216106057167,0.00884876400232315,0.011354446411132812
121029191502.70235,d4:ca:6e:f1:77:09,0.38920503854751587,-0.8444811105728149,-179.8153533935547,-0.009117459878325462,-0.0014512341003865004,0.034018516540527344
121029208173.03575,d4:ca:6e:f1:77:09,0.3907604217529297,-0.8445817232131958,-179.85549926757812,-0.010609402321279049,-0.009119655936956406,0.044859886169433594
121029224843.36916,d4:ca:6e:f1:77:09,0.39132657647132874,-0.8447496294975281,-179.8964080810547,-0.0058726961724460125,-0.011323037557303905,0.013190269470214844
121029241513.70256,d4:ca:6e:f1:77:09,0.39118003845214844,-0.8443836569786072,-179.93478393554688,0.043020594865083694,0.0072520580142736435,0.028650283813476562
121029258184.03596,d4:ca:6e:f1:77:09,0.3928896188735962,-0.8436058759689331,-179.9721221923828,0.06641633808612823,0.010581372305750847,0.021330833435058594
121029274854.36937,d4:ca:6e:f1:77:09,0.3942652940750122,-0.8428465723991394,179.9919891357422,0.034631527960300446,-0.0024479113053530455,0.009939193725585938
121029291524.70277,d4:ca:6e:f1:77:09,0.39381587505340576,-0.841546893119812,179.9548797607422,0.000573899073060602,-0.005714590661227703,0.02518749237060547
121029308195.03618,d4:ca:6e:f1:77:09,0.39464661478996277,-0.8423551321029663,179.91705322265625,-0.026150410994887352,-0.021810250356793404,0.024666786193847656
121029324865.36958,d4:ca:6e:f1:77:09,0.3951506018638611,-0.8418100476264954,179.87918090820312,-0.025233488529920578,0.000706380873452872,0.04003143310546875
121029341535.70299,d4:ca:6e:f1:77:09,0.39422640204429626,-0.8402224779129028,179.8401336669922,-0.04274769127368927,-0.009840589016675949,0.014232635498046875
121029358206.03639,d4:ca:6e:f1:77:09,0.39477822184562683,-0.8391342163085938,179.79917907714844,-0.011995380744338036,-0.02136661671102047,0.021728515625
121029374876.3698,d4:ca:6e:f1:77:09,0.39588749408721924,-0.838624894618988,179.757568359375,0.007457138504832983,-0.0075403922237455845,0.018929481506347656
121029391292.399,d4:ca:6e:f1:77:09,0.3968604505062103,-0.8389981389045715,179.7181396484375,0.052538786083459854,0.019367698580026627,-0.004157066345214844
121029407962.7324,d4:ca:6e:f1:77:09,0.39676132798194885,-0.8388885855674744,179.68099975585938,0.0693233534693718,0.0003269825829192996,0.019707679748535156
121029424633.06581,d4:ca:6e:f1:77:09,0.40082022547721863,-0.8375726342201233,179.6452178955078,0.07090140134096146,-0.008862549439072609,0.05442619323730469
121029441303.39922,d4:ca:6e:f1:77:09,0.4032518267631531,-0.8370056748390198,179.61032104492188,0.05310748517513275,0.013829325325787067,0.018433570861816406
121029457973.73262,d4:ca:6e:f1:77:09,0.40684059262275696,-0.8352414965629578,179.5775909423828,0.07819334417581558,0.00327472691424191,0.040940284729003906
121029474644.06602,d4:ca:6e:f1:77:09,0.4167100787162781,-0.8303506374359131,179.54464721679688,-0.0910956859588623,0.04724695906043053,0.1265420913696289
121029491314.39943,d4:ca:6e:f1:77:09,0.42301616072654724,-0.826266348361969,179.50662231445312,-0.17963609099388123,-0.004994800314307213,-0.037833213806152344
121029507984.73283,d4:ca:6e:f1:77:09,0.4292071461677551,-0.8240082263946533,179.4649658203125,-0.13443656265735626,-0.04972974210977554,-0.035271644592285156
121029524655.06624,d4:ca:6e:f1:77:09,0.434355229139328,-0.8224650621414185,179.420166015625,-0.08275879174470901,-0.046825602650642395,0.07955551147460938
121029541325.39964,d4:ca:6e:f1:77:09,0.43498072028160095,-0.8200604319572449,179.37612915039062,0.0037832593079656363,-0.015512071549892426,-0.07091808319091797
121029557995.73305,d4:ca:6e:f1:77:09,0.4357962906360626,-0.8201789855957031,179.3332061767578,0.08789043128490448,0.022544797509908676,-0.00482177734375
121029574666.06645,d4:ca:6e:f1:77:09,0.4349287152290344,-0.8207243084907532,179.2923126220703,0.13973426818847656,0.030200215056538582,0.08075618743896484
121029591336.39986,d4:ca:6e:f1:77:09,0.43481552600860596,-0.8194120526313782,179.255859375,0.11621300131082535,0.018931834027171135,0.020376205444335938
121029608006.73326,d4:ca:6e:f1:77:09,0.43514809012413025,-0.8203285336494446,179.22119140625,0.04281660169363022,0.011506334878504276,-0.0070438385009765625
121029624677.06667,d4:ca:6e:f1:77:09,0.4349028766155243,-0.8201980590820312,179.18714904785156,-0.0460146889090538,-0.0014415296027436852,0.06187629699707031
121029641347.40007,d4:ca:6e:f1:77:09,0.43601545691490173,-0.8193257451057434,179.14979553222656,-0.10859691351652145,-0.01697552390396595,-0.008429527282714844
121029658017.73347,d4:ca:6e:f1:77:09,0.4369705021381378,-0.8201025128364563,179.11012268066406,-0.08187919855117798,-0.018806366249918938,0.011381149291992188
121029674688.06688,d4:ca:6e:f1:77:09,0.4376566708087921,-0.818681538105011,179.06861877441406,-0.04595433175563812,-0.01467037945985794,0.05716991424560547
121029691226,d4:ca:6e:f1:77:09,0.4388491213321686,-0.8175859451293945,179.02662658691406,0.010972604155540466,0.011456694453954697,-0.01570892333984375
121029707896.3334,d4:ca:6e:f1:77:09,0.4375641942024231,-0.8172758221626282,178.98529052734375,0.06741373986005783,0.019513040781021118,0.041754722595214844
121029724566.66681,d4:ca:6e:f1:77:09,0.4380425810813904,-0.8164553046226501,178.94613647460938,0.08945000171661377,0.018684929236769676,0.04289531707763672
121029741237.00021,d4:ca:6e:f1:77:09,0.4374365210533142,-0.8165364861488342,178.90869140625,0.07257289439439774,0.0026953306514769793,-0.008719444274902344
121029757907.33362,d4:ca:6e:f1:77:09,0.43721964955329895,-0.8168567419052124,178.8705596923828,0.009951462969183922,-0.005317495670169592,0.03794384002685547
121029774577.66702,d4:ca:6e:f1:77:09,0.43887102603912354,-0.8159289360046387,178.83404541015625,-0.027256611734628677,-0.005765450187027454,0.046906471252441406
121029791248.00043,d4:ca:6e:f1:77:09,0.438796728849411,-0.8159177899360657,178.79571533203125,-0.05749493092298508,-0.0029164720326662064,-0.003482818603515625
121029807918.33383,d4:ca:6e:f1:77:09,0.440353125333786,-0.8169671297073364,178.75550842285156,-0.06914422661066055,-0.020760679617524147,0.030739784240722656
121029824588.66724,d4:ca:6e:f1:77:09,0.4396806061267853,-0.8162939548492432,178.7151336669922,-0.03009813278913498,-0.013201442547142506,0.036269187927246094
121029841259.00064,d4:ca:6e:f1:77:09,0.4399198591709137,-0.8166630268096924,178.67266845703125,0.02218804880976677,0.00034492829581722617,0.025783538818359375
121029857929.33405,d4:ca:6e:f1:77:09,0.4418286383152008,-0.8164322972297668,178.63223266601562,0.04882814362645149,0.00431339954957366,0.037070274353027344
121029874599.66745,d4:ca:6e:f1:77:09,0.44184160232543945,-0.8171122670173645,178.59271240234375,0.07339305430650711,0.007426582742482424,-0.01468658447265625
121029891270.00085,d4:ca:6e:f1:77:09,0.4421132504940033,-0.8165361285209656,178.55487060546875,0.04013512656092644,0.005261414684355259,0.03723716735839844
121029907940.33426,d4:ca:6e:f1:77:09,0.44195008277893066,-0.815711259841919,178.518310546875,-0.0036326302215456963,-0.0015807821182534099,0.05093193054199219
121029924610.66766,d4:ca:6e:f1:77:09,0.4418565630912781,-0.8164457678794861,178.48045349121094,-0.02069997228682041,-0.006484413985162973,-0.019697189331054688
121029941281.00107,d4:ca:6e:f1:77:09,0.442170113325119,-0.8173266053199768,178.4400634765625,-0.06324958056211472,-0.008556914515793324,0.036972999572753906
121029957951.33447,d4:ca:6e:f1:77:09,0.44287875294685364,-0.8164576292037964,178.3993682861328,-0.02944713644683361,-0.007569859270006418,0.04980754852294922
121029974621.66788,d4:ca:6e:f1:77:09,0.4456762671470642,-0.8170255422592163,178.35855102539062,-0.00885207299143076,-0.004114091396331787,0.006438255310058594
121029991292.00128,d4:ca:6e:f1:77:09,0.4461183547973633,-0.8164703249931335,178.31820678710938,0.03397881239652634,0.0016974288737401366,0.050698280334472656
121030007962.33469,d4:ca:6e:f1:77:09,0.44765087962150574,-0.8155760765075684,178.2793426513672,0.05682624876499176,0.017178749665617943,0.031531333923339844
121030024632.66809,d4:ca:6e:f1:77:09,0.44845303893089294,-0.8157609701156616,178.24179077148438,0.05835676193237305,0.0021084833424538374,-0.006928443908691406
121030041303.0015,d4:ca:6e:f1:77:09,0.4513695240020752,-0.8174593448638916,178.2048797607422,0.011911005713045597,0.0006403866573236883,0.047438621520996094
121030057973.3349,d4:ca:6e:f1:77:09,0.4555746912956238,-0.8191031217575073,178.1698455810547,-0.042204566299915314,0.020904527977108955,0.0034236907958984375
121030074643.6683,d4:ca:6e:f1:77:09,0.45825880765914917,-0.8198859095573425,178.1323699951172,-0.06291008740663528,-0.0012536337599158287,0.025724411010742188
121030091314.00171,d4:ca:6e:f1:77:09,0.4593835473060608,-0.8185935020446777,178.0919189453125,-0.05109317600727081,-0.034932851791381836,0.03811931610107422
121030107984.33511,d4:ca:6e:f1:77:09,0.4599001705646515,-0.8182647824287415,178.05105590820312,0.0025556408800184727,-0.00454292306676507,0.003993988037109375
121030124654.66852,d4:ca:6e:f1:77:09,0.4598246216773987,-0.8193214535713196,178.00991821289062,0.03258595988154411,0.012513014487922192,0.04981040954589844
121030141325.00192,d4:ca:6e:f1:77:09,0.4585155248641968,-0.8189666867256165,177.97113037109375,0.04220043867826462,0.01854723133146763,0.02017688751220703
121030157995.33533,d4:ca:6e:f1:77:09,0.4583073556423187,-0.8189980387687683,177.93301391601562,0.047563690692186356,0.00853097066283226,0.014727592468261719
121030174665.66873,d4:ca:6e:f1:77:09,0.45881369709968567,-0.8219305872917175,177.89675903320312,0.02028615027666092,0.016477279365062714,0.051003456115722656
121030191336.00214,d4:ca:6e:f1:77:09,0.45404762029647827,-0.8242552876472473,177.85888671875,-0.03826296702027321,0.022636331617832184,-0.10022449493408203
121030208006.33554,d4:ca:6e:f1:77:09,0.4809878468513489,-0.8432495594024658,177.98765563964844,1.185325264930725,-1.6234683990478516,0.30269527435302734
121030224676.66895,d4:ca:6e:f1:77:09,0.586129367351532,-0.8316896557807922,179.40965270996094,0.13197238743305206,-0.09460152685642242,0.1142873764038086
121030241347.00235,d4:ca:6e:f1:77:09,0.5229213833808899,-0.7370713949203491,-179.9033660888672,-1.3406965732574463,2.022233724594116,-0.14263153076171875
121030258017.33575,d4:ca:6e:f1:77:09,0.594789445400238,-0.7973038554191589,179.87039184570312,0.04110512509942055,-0.20990100502967834,-0.023899078369140625
121030274687.66916,d4:ca:6e:f1:77:09,0.6915184259414673,-0.7705473303794861,179.85801696777344,-0.06595434248447418,0.13408833742141724,0.16844844818115234
121030291358.00256,d4:ca:6e:f1:77:09,0.7231642007827759,-0.7617886662483215,179.68638610839844,0.04647637903690338,-0.03718746080994606,-0.16620445251464844
121030308028.33597,d4:ca:6e:f1:77:09,0.7389284372329712,-0.763653576374054,179.28472900390625,0.05527253448963165,0.05759569630026817,0.10227012634277344
121030324698.66937,d4:ca:6e:f1:77:09,0.7117687463760376,-0.7671796083450317,179.24929809570312,0.06867320090532303,-0.10483933240175247,-0.0276947021484375
121030341369.00278,d4:ca:6e:f1:77:09,0.5394039750099182,-0.8382235169410706,179.2889862060547,0.16206850111484528,0.2640833556652069,-0.5065450668334961
121030358039.33618,d4:ca:6e:f1:77:09,0.42892682552337646,-0.8211976289749146,-179.93983459472656,-0.3462693393230438,0.3943389654159546,0.47187328338623047
121030374709.66959,d4:ca:6e:f1:77:09,0.459329754114151,-0.8200728893280029,-179.45497131347656,0.07465296983718872,-0.4374658167362213,0.10538387298583984
121030391380.00299,d4:ca:6e:f1:77:09,0.43540146946907043,-0.8331489562988281,-178.9017333984375,0.04593835771083832,-0.0037441598251461983,0.020676612854003906
121030408050.3364,d4:ca:6e:f1:77:09,0.4543369710445404,-0.8436068296432495,-178.45199584960938,-0.33567339181900024,0.3715975880622864,0.15761089324951172
121030424720.6698,d4:ca:6e:f1:77:09,0.5394688248634338,-0.824164628982544,-178.44583129882812,0.015964800491929054,-0.39191028475761414,0.1115102767944336
121030441391.0032,d4:ca:6e:f1:77:09,0.5802102088928223,-0.788886308670044,-178.450439453125,0.11804839223623276,-0.15140564739704132,-0.11150455474853516
121030458061.33661,d4:ca:6e:f1:77:09,0.5744417905807495,-0.8004902601242065,-177.9020538330078,0.5592783093452454,-0.9508277177810669,0.1276836395263672
121030474731.67001,d4:ca:6e:f1:77:09,0.5388981103897095,-0.767164409160614,-177.505615234375,-0.9296807646751404,0.09230848401784897,-0.05276966094970703
121030491402.00342,d4:ca:6e:f1:77:09,0.472169429063797,-0.7406811118125916,-177.63482666015625,0.17526434361934662,0.3394356667995453,0.03834724426269531
121030508072.33682,d4:ca:6e:f1:77:09,0.48587164282798767,-0.7299550175666809,-177.62631225585938,-0.0033474101219326258,0.6489687561988831,0.050154685974121094
121030524742.67023,d4:ca:6e:f1:77:09,0.48769301176071167,-0.7297180891036987,-177.66500854492188,-0.030406104400753975,0.016869129613041878,0.06548118591308594
121030541413.00363,d4:ca:6e:f1:77:09,0.5428049564361572,-0.7156044840812683,-177.67747497558594,-0.04325147718191147,0.03192024305462837,0.08502483367919922
121030558083.33704,d4:ca:6e:f1:77:09,0.5681591033935547,-0.7159472107887268,-177.7126922607422,-0.0021496014669537544,0.0015775347128510475,-0.07069015502929688
121030574753.67044,d4:ca:6e:f1:77:09,0.5733464360237122,-0.7257568836212158,-177.74839782714844,-0.01168329268693924,-0.008458652533590794,-0.054424285888671875
121030591424.00385,d4:ca:6e:f1:77:09,0.5837341547012329,-0.7204933166503906,-177.782470703125,-0.0037430308293551207,0.0034435801208019257,0.1399383544921875
121030608094.33725,d4:ca:6e:f1:77:09,0.6307851672172546,-0.7395876049995422,-177.80490112304688,0.02633090876042843,-0.03874097764492035,-0.02501392364501953
121030624764.67065,d4:ca:6e:f1:77:09,0.5894016027450562,-0.7616081237792969,-177.59524536132812,0.1699683666229248,-0.07824458926916122,-0.0035953521728515625
121030641435.00406,d4:ca:6e:f1:77:09,0.6162354946136475,-0.7631077766418457,-177.54100036621094,-0.2609039843082428,0.07329284399747849,0.0761117935180664
121030658105.33746,d4:ca:6e:f1:77:09,0.6032648086547852,-0.7676806449890137,-177.39207458496094,0.19085414707660675,-0.10958614945411682,-0.03610801696777344
121030674775.67087,d4:ca:6e:f1:77:09,0.5588006973266602,-0.7832274436950684,-177.31204223632812,-0.24672633409500122,0.11037769913673401,0.0064716339111328125
121030691446.00427,d4:ca:6e:f1:77:09,0.6295537352561951,-0.783964991569519,-177.4898681640625,-0.24132554233074188,0.14563819766044617,0.16814422607421875
121030708116.33768,d4:ca:6e:f1:77:09,0.6585912704467773,-0.7854234576225281,-177.76885986328125,0.2082725167274475,-0.1013016477227211,-0.028760910034179688
121030724786.67108,d4:ca:6e:f1:77:09,0.6891207695007324,-0.7838281393051147,-177.807373046875,-0.018699685111641884,-0.026429781690239906,-0.007098197937011719
121030741457.00449,d4:ca:6e:f1:77:09,0.7113469839096069,-0.7636099457740784,-177.97708129882812,-0.4507334232330322,0.3724551796913147,0.05299663543701172
121030758127.33789,d4:ca:6e:f1:77:09,0.7147437930107117,-0.7733598351478577,-178.1027374267578,0.3404524028301239,-0.05936744436621666,-0.057976722717285156
121030774797.6713,d4:ca:6e:f1:77:09,0.7405802011489868,-0.7550843358039856,-178.32009887695312,-0.07312657684087753,0.4179793894290924,0.035778045654296875
121030791468.0047,d4:ca:6e:f1:77:09,0.735279381275177,-0.7679123878479004,-178.2394256591797,0.13846071064472198,-0.49335673451423645,0.044785499572753906
121030808138.3381,d4:ca:6e:f1:77:09,0.8043041229248047,-0.7489078044891357,-178.21859741210938,-0.14404211938381195,-0.15157531201839447,0.13548660278320312
121030824808.67151,d4:ca:6e:f1:77:09,0.8877161145210266,-0.7432254552841187,-178.1396484375,0.021653756499290466,-0.022685030475258827,0.01923656463623047
121030841479.00491,d4:ca:6e:f1:77:09,1.0557259321212769,-0.7308991551399231,-177.8689727783203,0.6057309508323669,0.010202409699559212,0.0965890884399414
121030858149.33832,d4:ca:6e:f1:77:09,1.1845468282699585,-0.7189105749130249,-177.3197479248047,0.12827937304973602,0.01491705235093832,0.0000476837158203125
121030874819.67172,d4:ca:6e:f1:77:09,1.2048028707504272,-0.5171093344688416,-176.86729431152344,-0.4656636416912079,-0.49709224700927734,-0.2465362548828125
121030891490.00513,d4:ca:6e:f1:77:09,1.0300966501235962,0.09769880026578903,-176.5055389404297,-0.4412536025047302,-0.7112213373184204,0.02382183074951172
121030908160.33853,d4:ca:6e:f1:77:09,0.32523494958877563,0.45122072100639343,-176.04110717773438,0.039558254182338715,-1.0042576789855957,0.6233377456665039
121030924830.67194,d4:ca:6e:f1:77:09,-1.2259161472320557,0.19270522892475128,-175.1040802001953,-0.01652608998119831,-0.8556044697761536,2.947368621826172
121030941501.00534,d4:ca:6e:f1:77:09,-0.8426037430763245,-0.7847565412521362,-173.9945526123047,-0.9416527152061462,-1.8743979930877686,6.0313310623168945
121030958171.33875,d4:ca:6e:f1:77:09,2.4485719203948975,-2.2304458618164062,-173.66009521484375,-0.34955042600631714,-1.738415241241455,5.481308937072754
121030974841.67215,d4:ca:6e:f1:77:09,8.173115730285645,-3.8382956981658936,-174.65133666992188,0.12764400243759155,1.1854361295700073,4.80479621887207
121030991512.00555,d4:ca:6e:f1:77:09,14.775126457214355,-5.412017345428467,-175.80799865722656,1.1506322622299194,3.0586729049682617,4.380209922790527
121031008182.33896,d4:ca:6e:f1:77:09,22.150287628173828,-6.806493759155273,-177.0685272216797,0.41306596994400024,0.9863788485527039,2.0665273666381836
121031024852.67236,d4:ca:6e:f1:77:09,29.201269149780273,-7.9553117752075195,-178.2679901123047,0.37352481484413147,-0.8008750677108765,1.5431632995605469
121031041523.00577,d4:ca:6e:f1:77:09,36.8925666809082,-9.007139205932617,-179.45901489257812,-0.05178109183907509,0.5714331865310669,3.206610679626465
121031058193.33917,d4:ca:6e:f1:77:09,44.988441467285156,-9.93818187713623,179.20333862304688,0.6497907042503357,1.6624666452407837,3.1141786575317383
121031074863.67258,d4:ca:6e:f1:77:09,53.761573791503906,-10.614027976989746,177.7469482421875,1.104124665260315,1.3847360610961914,3.862581253051758
121031091534.00598,d4:ca:6e:f1:77:09,62.94823455810547,-11.351353645324707,176.5937042236328,1.525511384010315,0.8030425906181335,2.697382926940918
121031108204.33939,d4:ca:6e:f1:77:09,72.67342376708984,-12.080743789672852,175.76776123046875,1.6636056900024414,0.4902402460575104,0.5937652587890625
121031124874.67279,d4:ca:6e:f1:77:09,82.33329010009766,-13.079900741577148,175.28170776367188,1.0773515701293945,1.0454190969467163,-1.9556450843811035
121031141545.0062,d4:ca:6e:f1:77:09,90.7477035522461,-14.307332038879395,174.8709716796875,-0.04809895530343056,0.7469519972801208,-4.784065246582031
121031158215.3396,d4:ca:6e:f1:77:09,97.09711456298828,-15.42772102355957,174.39285278320312,-0.5190150737762451,0.8068052530288696,-5.439547538757324
121031174885.673,d4:ca:6e:f1:77:09,101.28740692138672,-16.55908966064453,173.796142578125,-0.8525925874710083,0.03382823243737221,-5.0868425369262695
121031191556.00641,d4:ca:6e:f1:77:09,103.98677062988281,-17.671688079833984,173.12535095214844,-0.4541183114051819,-0.5887836217880249,-3.2847862243652344
121031208226.33981,d4:ca:6e:f1:77:09,106.67935180664062,-18.465171813964844,172.52198791503906,-0.30776292085647583,-0.7824499607086182,-2.97153377532959
121031224896.67322,d4:ca:6e:f1:77:09,109.17727661132812,-19.313312530517578,171.9734344482422,-0.24583296477794647,-1.5231844186782837,-2.474818229675293
121031241567.00662,d4:ca:6e:f1:77:09,111.0359115600586,-20.211946487426758,171.53195190429688,-0.6497257947921753,-1.1513457298278809,-2.710665225982666
121031258237.34003,d4:ca:6e:f1:77:09,112.61017608642578,-20.678977966308594,171.29608154296875,-1.259311556816101,-1.7606172561645508,-4.976620197296143
121031274907.67343,d4:ca:6e:f1:77:09,113.08139038085938,-20.985469818115234,171.0828399658203,-1.263584852218628,-1.0402082204818726,-3.9310712814331055
121031291578.00684,d4:ca:6e:f1:77:09,112.36833190917969,-21.432334899902344,170.78720092773438,-0.6881061792373657,-0.5124228000640869,-1.8772964477539062
121031308248.34024,d4:ca:6e:f1:77:09,111.12448120117188,-21.753360748291016,170.6253662109375,-0.40370914340019226,0.3428899943828583,-1.6061534881591797
121031324918.67365,d4:ca:6e:f1:77:09,109.87322998046875,-21.808208465576172,170.6687774658203,-0.7938370108604431,-0.2486903816461563,-2.6562819480895996
121031341589.00705,d4:ca:6e:f1:77:09,107.93218231201172,-21.626569747924805,170.88697814941406,-1.4246302843093872,-0.5624542236328125,-4.542403697967529
121031358259.34045,d4:ca:6e:f1:77:09,103.60505676269531,-21.767925262451172,171.11239624023438,-1.4476906061172485,-1.3961546421051025,-4.60597562789917
121031374929.67386,d4:ca:6e:f1:77:09,95.24839782714844,-22.80143928527832,171.48902893066406,-0.9566192626953125,0.5197665691375732,-2.76065731048584
121031391600.00726,d4:ca:6e:f1:77:09,84.90269470214844,-24.11334991455078,172.34848022460938,-0.2696722447872162,1.8270479440689087,-1.9753785133361816
121031408270.34067,d4:ca:6e:f1:77:09,73.41011810302734,-25.345680236816406,173.89614868164062,-0.25202545523643494,0.9552610516548157,-2.183218002319336
121031424940.67407,d4:ca:6e:f1:77:09,60.7134895324707,-26.206533432006836,176.22471618652344,0.10625800490379333,0.6491391062736511,-1.0924959182739258
121031441611.00748,d4:ca:6e:f1:77:09,47.1801872253418,-26.37798500061035,178.96458435058594,0.0769619345664978,2.715552806854248,0.2715139389038086
121031458281.34088,d4:ca:6e:f1:77:09,34.09523391723633,-26.274057388305664,-178.4178009033203,1.0053311586380005,1.9724968671798706,4.395101547241211
121031474951.67429,d4:ca:6e:f1:77:09,22.896772384643555,-26.05094337463379,-175.81214904785156,0.918441116809845,-2.0238518714904785,4.191281318664551
121031491622.00769,d4:ca:6e:f1:77:09,14.233148574829102,-25.02256965637207,-173.3705596923828,-0.6941875219345093,-2.629352331161499,-1.624558448791504
121031508292.3411,d4:ca:6e:f1:77:09,6.848058223724365,-22.854703903198242,-171.4618682861328,-1.1116127967834473,-0.5861678719520569,-4.965923309326172
121031524962.6745,d4:ca:6e:f1:77:09,1.170689582824707,-20.148801803588867,-170.58892822265625,-0.9334260821342468,0.8353311419487,-0.9648866653442383
121031541633.0079,d4:ca:6e:f1:77:09,-2.8992741107940674,-17.958534240722656,-170.34378051757812,0.48906210064888,-0.15255962312221527,4.043083190917969
121031558303.34131,d4:ca:6e:f1:77:09,-5.928762435913086,-16.448287963867188,-169.9182891845703,0.5140530467033386,-1.2877838611602783,3.304719924926758
121031574973.67471,d4:ca:6e:f1:77:09,-8.14358139038086,-15.112279891967773,-169.23243713378906,0.4136529266834259,-0.8847838640213013,0.7753267288208008
121031591644.00812,d4:ca:6e:f1:77:09,-9.865864753723145,-13.607044219970703,-168.5814208984375,0.3574991226196289,1.0036348104476929,-0.6966457366943359
121031608314.34152,d4:ca:6e:f1:77:09,-10.632579803466797,-12.106060028076172,-168.29116821289062,0.2593710720539093,0.29007869958877563,0.8355865478515625
121031624984.67493,d4:ca:6e:f1:77:09,-10.6387357711792,-10.767582893371582,-168.12017822265625,0.15877512097358704,-0.13631995022296906,0.8948268890380859
121031641655.00833,d4:ca:6e:f1:77:09,-10.327640533447266,-9.601696968078613,-167.8275909423828,0.12320161610841751,-0.5808030962944031,1.6492176055908203
121031658325.34174,d4:ca:6e:f1:77:09,-9.764141082763672,-8.654266357421875,-167.52838134765625,0.2271193563938141,0.5900303721427917,1.2976436614990234
121031674995.67514,d4:ca:6e:f1:77:09,-8.984107971191406,-7.863121509552002,-167.33157348632812,0.26589491963386536,0.22241787612438202,0.961090087890625
121031691666.00854,d4:ca:6e:f1:77:09,-8.115038871765137,-7.171066761016846,-167.23666381835938,0.5431163311004639,0.3823501169681549,0.48508644104003906
121031708336.34195,d4:ca:6e:f1:77:09,-7.295649528503418,-6.641658782958984,-167.14227294921875,0.4544092118740082,0.22879552841186523,1.4550800323486328
121031725006.67535,d4:ca:6e:f1:77:09,-6.686807632446289,-6.401971340179443,-166.99740600585938,0.4249548017978668,-0.6748183965682983,1.4886999130249023
121031741677.00876,d4:ca:6e:f1:77:09,-5.735979080200195,-6.391772747039795,-166.84791564941406,0.43781042098999023,-0.17861203849315643,1.0068798065185547
121031758347.34216,d4:ca:6e:f1:77:09,-4.6299638748168945,-6.350109100341797,-166.92208862304688,0.4840312898159027,0.9446280002593994,-0.8994112014770508
121031775017.67557,d4:ca:6e:f1:77:09,-4.188292026519775,-6.30747652053833,-166.9464569091797,0.36161869764328003,0.5092715620994568,-0.22696685791015625
121031791688.00897,d4:ca:6e:f1:77:09,-3.723508834838867,-6.424526691436768,-166.9664764404297,0.3423236310482025,-0.5098665952682495,0.41700077056884766
121031808358.34238,d4:ca:6e:f1:77:09,-3.144968271255493,-6.624655246734619,-167.10751342773438,0.39988815784454346,0.40393027663230896,-0.11682796478271484
121031825028.67578,d4:ca:6e:f1:77:09,-2.8239898681640625,-6.919000625610352,-167.37884521484375,0.5751094222068787,-0.3891708254814148,-0.02854442596435547
121031841699.00919,d4:ca:6e:f1:77:09,-2.247095823287964,-7.2705206871032715,-167.7305450439453,0.7665619850158691,-0.9461791515350342,0.23640060424804688
121031858369.34259,d4:ca:6e:f1:77:09,-1.4099980592727661,-7.641139507293701,-168.1451416015625,0.7711977362632751,-0.45392823219299316,-0.5599079132080078
121031875039.676,d4:ca:6e:f1:77:09,-0.5482261776924133,-7.97859525680542,-168.607421875,0.5332622528076172,-0.38010668754577637,-0.44724464416503906
121031891710.0094,d4:ca:6e:f1:77:09,0.36571845412254333,-8.29779052734375,-169.13572692871094,0.36768412590026855,-0.8525599241256714,-0.21613121032714844
121031908380.3428,d4:ca:6e:f1:77:09,1.2091448307037354,-8.635812759399414,-169.5450439453125,0.07709880918264389,-0.8351324796676636,0.03652381896972656
121031925050.67621,d4:ca:6e:f1:77:09,2.002331495285034,-8.96815013885498,-169.8649444580078,-0.017713051289319992,-0.7421693205833435,0.025414466857910156
