sep=,
Measurement Mode:,Complete (Euler)
StartTime:,Sat, 12 Mar 2022 16:57:07 GMT
© Xsens Technologies B. V. 2005-2022

Timestamp,Address,Euler_x,Euler_y,Euler_z,FreeAcc_x,FreeAcc_y,FreeAcc_z
120006091982.799,d4:ca:6e:f1:77:09,-1.7040444612503052,-29.327302932739258,91.7354965209961,0.0036887461319565773,-0.02007235772907734,0.11557483673095703
120006098482.699,d4:ca:6e:f1:77:09,-1.7179325819015503,-29.311586380004883,91.74516296386719,-0.0032619480043649673,-0.0028752705547958612,0.10366058349609375
120006115153.03241,d4:ca:6e:f1:77:09,-1.7250735759735107,-29.302202224731445,91.75049591064453,0.015168818645179272,-0.007233102805912495,0.12923812866210938
120006123480.6,d4:ca:6e:f1:77:09,-1.7454431056976318,-29.30084228515625,91.76356506347656,0.013028346933424473,-0.006046919617801905,0.112945556640625
120006140150.93341,d4:ca:6e:f1:77:09,-1.7668383121490479,-29.297868728637695,91.77562713623047,0.00893291924148798,0.01131266076117754,0.09393787384033203
120006156821.26682,d4:ca:6e:f1:77:09,-1.7846184968948364,-29.301973342895508,91.78726959228516,-0.0023918121587485075,-0.02096652053296566,0.12447261810302734
120006173491.60022,d4:ca:6e:f1:77:09,-1.799740195274353,-29.300884246826172,91.79698181152344,-0.006409010384231806,-0.012348196469247341,0.12060832977294922
120006190161.93362,d4:ca:6e:f1:77:09,-1.8113807439804077,-29.302492141723633,91.80523681640625,-0.010174756869673729,-0.008185491897165775,0.1051950454711914
120006206832.26703,d4:ca:6e:f1:77:09,-1.8202507495880127,-29.301015853881836,91.81219482421875,-0.008221030235290527,-0.0026060494128614664,0.11794853210449219
120006223502.60043,d4:ca:6e:f1:77:09,-1.8284258842468262,-29.304323196411133,91.81907653808594,-0.017926298081874847,-0.021259993314743042,0.1282196044921875
120006240172.93384,d4:ca:6e:f1:77:09,-1.8346701860427856,-29.304845809936523,91.82539367675781,-0.017081307247281075,0.0024695945903658867,0.10728073120117188
120006256843.26724,d4:ca:6e:f1:77:09,-1.8427914381027222,-29.305801391601562,91.83149719238281,-0.0017412776360288262,-0.006942647509276867,0.1446399688720703
120006273513.60065,d4:ca:6e:f1:77:09,-1.8513705730438232,-29.311607360839844,91.83811950683594,-0.021459702402353287,-0.006168846040964127,0.11332321166992188
120006290183.93405,d4:ca:6e:f1:77:09,-1.8586843013763428,-29.31180191040039,91.84447479248047,-0.003043911186978221,0.004974727984517813,0.10476207733154297
120006306854.26746,d4:ca:6e:f1:77:09,-1.866654872894287,-29.316503524780273,91.85120391845703,0.011301709339022636,-0.025363020598888397,0.14281082153320312
120006323524.60086,d4:ca:6e:f1:77:09,-1.8766642808914185,-29.320775985717773,91.8599624633789,-0.014085115864872932,-0.008009810000658035,0.09624958038330078
120006340194.93427,d4:ca:6e:f1:77:09,-1.8834829330444336,-29.320343017578125,91.86625671386719,-0.030085068196058273,-0.018552469089627266,0.1215505599975586
120006356865.26767,d4:ca:6e:f1:77:09,-1.8919494152069092,-29.326114654541016,91.87359619140625,-0.03312763571739197,0.0007701138965785503,0.10817718505859375
120006373535.60107,d4:ca:6e:f1:77:09,-1.89894437789917,-29.328481674194336,91.8793716430664,-0.02726813405752182,-0.009458285756409168,0.10356712341308594
120006390205.93448,d4:ca:6e:f1:77:09,-1.9049758911132812,-29.330421447753906,91.88558959960938,-0.01733052358031273,-0.026834294199943542,0.12377738952636719
120006406876.26788,d4:ca:6e:f1:77:09,-1.9119282960891724,-29.335006713867188,91.89146423339844,-0.01739657297730446,-0.003939751069992781,0.10284900665283203
120006423066.299,d4:ca:6e:f1:77:09,-1.9191902875900269,-29.337404251098633,91.89777374267578,-0.006825414951890707,-0.005100341979414225,0.09484195709228516
120006439736.6324,d4:ca:6e:f1:77:09,-1.926584243774414,-29.340805053710938,91.90475463867188,-0.02787955291569233,-0.024696169421076775,0.12061500549316406
120006456406.9658,d4:ca:6e:f1:77:09,-1.9335919618606567,-29.347314834594727,91.9107437133789,-0.03821825608611107,-0.006880511064082384,0.08964824676513672
120006473077.29921,d4:ca:6e:f1:77:09,-1.9411336183547974,-29.345741271972656,91.91667938232422,-0.011120999231934547,-0.015385737642645836,0.11422443389892578
120006489747.63261,d4:ca:6e:f1:77:09,-1.9491724967956543,-29.350317001342773,91.92167663574219,-0.02680412121117115,-0.03236545994877815,0.13428497314453125
120006506417.96602,d4:ca:6e:f1:77:09,-1.9563931226730347,-29.353506088256836,91.92797088623047,-0.030585624277591705,-0.008684484288096428,0.10153961181640625
120006523088.29942,d4:ca:6e:f1:77:09,-1.9620134830474854,-29.354516983032227,91.93257141113281,-0.03664640337228775,-0.022101743146777153,0.11718368530273438
120006539758.63283,d4:ca:6e:f1:77:09,-1.9698530435562134,-29.358980178833008,91.93862915039062,-0.01430561114102602,-0.022196512669324875,0.1201772689819336
120006556428.96623,d4:ca:6e:f1:77:09,-1.9770996570587158,-29.36277961730957,91.94414520263672,-0.026714157313108444,-0.0012491021770983934,0.0968179702758789
120006573099.29964,d4:ca:6e:f1:77:09,-1.9833678007125854,-29.3642635345459,91.95001983642578,-0.01533879991620779,-0.020483843982219696,0.1217050552368164
120006589769.63304,d4:ca:6e:f1:77:09,-1.9913651943206787,-29.369266510009766,91.955810546875,-0.037268102169036865,-0.025656605139374733,0.11404228210449219
120006606439.96645,d4:ca:6e:f1:77:09,-1.9993025064468384,-29.372583389282227,91.96292114257812,-0.019893771037459373,-0.008121566846966743,0.10010051727294922
120006623110.29985,d4:ca:6e:f1:77:09,-2.0049290657043457,-29.374980926513672,91.96888732910156,-0.05021810904145241,-0.011546678841114044,0.11349678039550781
120006639780.63326,d4:ca:6e:f1:77:09,-2.011535882949829,-29.37812614440918,91.97596740722656,-0.04266448691487312,-0.009072279557585716,0.11379528045654297
120006656450.96666,d4:ca:6e:f1:77:09,-2.0194993019104004,-29.380964279174805,91.98157501220703,-0.03374766185879707,-0.026225222274661064,0.12161540985107422
120006673121.30006,d4:ca:6e:f1:77:09,-2.0263290405273438,-29.38405418395996,91.98637390136719,-0.03728386014699936,-0.023052120581269264,0.10698890686035156
120006689791.63347,d4:ca:6e:f1:77:09,-2.0341262817382812,-29.387285232543945,91.99105072021484,-0.04499438777565956,-0.0336977057158947,0.11247539520263672
120006706461.96687,d4:ca:6e:f1:77:09,-2.04118013381958,-29.392581939697266,91.99755096435547,-0.042826198041439056,-0.028120165690779686,0.12099552154541016
120006723132.30028,d4:ca:6e:f1:77:09,-2.047036647796631,-29.395126342773438,92.00189208984375,-0.0577588751912117,-0.02129407972097397,0.12027740478515625
120006739802.63368,d4:ca:6e:f1:77:09,-2.0541610717773438,-29.399702072143555,92.00592803955078,-0.054183006286621094,-0.028882566839456558,0.11431026458740234
120006756472.96709,d4:ca:6e:f1:77:09,-2.061448335647583,-29.403671264648438,92.00940704345703,-0.055303700268268585,-0.01808331534266472,0.10087966918945312
120006773143.30049,d4:ca:6e:f1:77:09,-2.0678787231445312,-29.406280517578125,92.01300811767578,-0.05327866971492767,-0.029931848868727684,0.11328601837158203
120006789813.6339,d4:ca:6e:f1:77:09,-2.0733659267425537,-29.41021728515625,92.01665496826172,-0.05165797844529152,-0.033473413437604904,0.10976791381835938
120006806483.9673,d4:ca:6e:f1:77:09,-2.078939199447632,-29.412004470825195,92.02153778076172,-0.04565956071019173,-0.020739544183015823,0.10510826110839844
120006823154.3007,d4:ca:6e:f1:77:09,-2.084751605987549,-29.414127349853516,92.02515411376953,-0.03892790898680687,-0.025875313207507133,0.11160469055175781
120006839824.63411,d4:ca:6e:f1:77:09,-2.0913944244384766,-29.420169830322266,92.0296401977539,-0.04411263018846512,-0.027397770434617996,0.11331939697265625
120006856494.96751,d4:ca:6e:f1:77:09,-2.0972015857696533,-29.42172622680664,92.03382110595703,-0.038793690502643585,-0.039410363882780075,0.10484123229980469
120006872805.6,d4:ca:6e:f1:77:09,-2.1035120487213135,-29.423755645751953,92.03936004638672,-0.040820058435201645,-0.030357642099261284,0.1304779052734375
120006889475.93341,d4:ca:6e:f1:77:09,-2.1097614765167236,-29.427688598632812,92.04435729980469,-0.04637156054377556,-0.022443382069468498,0.10062599182128906
120006906146.26682,d4:ca:6e:f1:77:09,-2.116884469985962,-29.43067169189453,92.05048370361328,-0.03292524814605713,-0.030689893290400505,0.11124420166015625
120006922816.60022,d4:ca:6e:f1:77:09,-2.123800277709961,-29.435598373413086,92.05786895751953,-0.027905592694878578,-0.03105701319873333,0.10592079162597656
120006939486.93362,d4:ca:6e:f1:77:09,-2.1325883865356445,-29.439075469970703,92.06468963623047,-0.039525024592876434,-0.017186805605888367,0.09968090057373047
120006956157.26703,d4:ca:6e:f1:77:09,-2.138046979904175,-29.44125747680664,92.06945037841797,-0.06593464314937592,-0.04078507795929909,0.13243770599365234
120006972827.60043,d4:ca:6e:f1:77:09,-2.1447253227233887,-29.448129653930664,92.07495880126953,-0.07043619453907013,-0.03547709435224533,0.08701419830322266
120006989497.93384,d4:ca:6e:f1:77:09,-2.1524853706359863,-29.44904327392578,92.07978820800781,-0.0856189876794815,-0.029328029602766037,0.10849571228027344
120007006168.26724,d4:ca:6e:f1:77:09,-2.1591298580169678,-29.45362091064453,92.08563232421875,-0.07193160802125931,-0.050423406064510345,0.12458038330078125
120007022838.60065,d4:ca:6e:f1:77:09,-2.1669983863830566,-29.45726776123047,92.09086608886719,-0.07394769787788391,-0.020330067723989487,0.08919239044189453
120007039508.93405,d4:ca:6e:f1:77:09,-2.1762945652008057,-29.459569931030273,92.09558868408203,-0.06125618517398834,-0.04407507926225662,0.12128353118896484
120007056179.26746,d4:ca:6e:f1:77:09,-2.183250904083252,-29.463886260986328,92.10067749023438,-0.06173047795891762,-0.02985551953315735,0.12075233459472656
120007072849.60086,d4:ca:6e:f1:77:09,-2.1915066242218018,-29.46722984313965,92.10382080078125,-0.06121326982975006,-0.031430281698703766,0.11293601989746094
120007089519.93427,d4:ca:6e:f1:77:09,-2.1983439922332764,-29.469066619873047,92.10760498046875,-0.05653637275099754,-0.043292783200740814,0.11647510528564453
120007106190.26767,d4:ca:6e:f1:77:09,-2.2054660320281982,-29.47127342224121,92.11266326904297,-0.059825364500284195,-0.04227020964026451,0.11960983276367188
120007122860.60107,d4:ca:6e:f1:77:09,-2.210756540298462,-29.474349975585938,92.11743927001953,-0.04741905629634857,-0.025344915688037872,0.10431480407714844
120007139530.93448,d4:ca:6e:f1:77:09,-2.217517852783203,-29.47441864013672,92.12176513671875,-0.05709884315729141,-0.03551531583070755,0.11517047882080078
120007156201.26788,d4:ca:6e:f1:77:09,-2.2241170406341553,-29.479124069213867,92.12677764892578,-0.07587113976478577,-0.02798762172460556,0.11175823211669922
120007172871.60129,d4:ca:6e:f1:77:09,-2.23024845123291,-29.481042861938477,92.13143920898438,-0.06254976242780685,-0.028426488861441612,0.09503841400146484
120007189541.9347,d4:ca:6e:f1:77:09,-2.2361130714416504,-29.48160743713379,92.13685607910156,-0.07468115538358688,-0.0459253191947937,0.12129020690917969
120007206212.2681,d4:ca:6e:f1:77:09,-2.243669033050537,-29.487098693847656,92.14167785644531,-0.09265439212322235,-0.027974434196949005,0.11493873596191406
120007222882.6015,d4:ca:6e:f1:77:09,-2.2499828338623047,-29.488208770751953,92.14591217041016,-0.09412164241075516,-0.04464224353432655,0.10750293731689453
120007239552.9349,d4:ca:6e:f1:77:09,-2.2562999725341797,-29.49080467224121,92.14942932128906,-0.07537907361984253,-0.04529881104826927,0.12948894500732422
120007256223.26831,d4:ca:6e:f1:77:09,-2.264055013656616,-29.494731903076172,92.1543197631836,-0.07242769747972488,-0.02039533294737339,0.11593818664550781
120007272893.60172,d4:ca:6e:f1:77:09,-2.270289659500122,-29.496322631835938,92.1579360961914,-0.04889155924320221,-0.03491652384400368,0.09948539733886719
120007289563.93512,d4:ca:6e:f1:77:09,-2.275566577911377,-29.49891471862793,92.16178894042969,-0.05671965330839157,-0.03336545452475548,0.1186532974243164
120007306234.26852,d4:ca:6e:f1:77:09,-2.282390832901001,-29.503128051757812,92.16683959960938,-0.06908204406499863,-0.06373773515224457,0.09575462341308594
120007322904.60193,d4:ca:6e:f1:77:09,-2.288149356842041,-29.505680084228516,92.17219543457031,-0.08859740942716599,-0.04985300078988075,0.10953617095947266
120007339574.93533,d4:ca:6e:f1:77:09,-2.2938666343688965,-29.508155822753906,92.17681884765625,-0.09326491504907608,-0.04567520692944527,0.13063335418701172
120007356245.26874,d4:ca:6e:f1:77:09,-2.2987632751464844,-29.512662887573242,92.17909240722656,-0.09063293784856796,-0.04525388404726982,0.11012744903564453
120007372915.60214,d4:ca:6e:f1:77:09,-2.305171489715576,-29.51441192626953,92.18199920654297,-0.09656932950019836,-0.04407351464033127,0.10282611846923828
120007389585.93555,d4:ca:6e:f1:77:09,-2.310579299926758,-29.519453048706055,92.18607330322266,-0.07732062041759491,-0.04495817795395851,0.1292858123779297
120007406256.26895,d4:ca:6e:f1:77:09,-2.3163161277770996,-29.522701263427734,92.18841552734375,-0.05704888701438904,-0.0374152846634388,0.1154632568359375
120007422926.60236,d4:ca:6e:f1:77:09,-2.3234758377075195,-29.525035858154297,92.19208526611328,-0.06239844858646393,-0.045463986694812775,0.11898040771484375
120007439596.93576,d4:ca:6e:f1:77:09,-2.329272985458374,-29.52956771850586,92.19679260253906,-0.05859336256980896,-0.05638047307729721,0.11511707305908203
120007456267.26917,d4:ca:6e:f1:77:09,-2.3343634605407715,-29.532224655151367,92.2003402709961,-0.09285923838615417,-0.040803518146276474,0.10435104370117188
120007472937.60257,d4:ca:6e:f1:77:09,-2.3397104740142822,-29.534250259399414,92.2031021118164,-0.09090562164783478,-0.04221120476722717,0.12193870544433594
120007489607.93597,d4:ca:6e:f1:77:09,-2.346069812774658,-29.53790855407715,92.20763397216797,-0.09385085850954056,-0.05852619558572769,0.10944175720214844
120007506278.26938,d4:ca:6e:f1:77:09,-2.351026773452759,-29.539878845214844,92.21137237548828,-0.07866370677947998,-0.03229762241244316,0.10437774658203125
120007522948.60278,d4:ca:6e:f1:77:09,-2.3565781116485596,-29.54049301147461,92.2164077758789,-0.07209376990795135,-0.06604818999767303,0.13718509674072266
120007539618.93619,d4:ca:6e:f1:77:09,-2.3627352714538574,-29.545862197875977,92.2212142944336,-0.06189397722482681,-0.0550086610019207,0.10906410217285156
120007556289.26959,d4:ca:6e:f1:77:09,-2.3685314655303955,-29.54557228088379,92.22549438476562,-0.08371197432279587,-0.06144751235842705,0.1060953140258789
120007572959.603,d4:ca:6e:f1:77:09,-2.3726303577423096,-29.54952621459961,92.22848510742188,-0.09479407966136932,-0.044995058327913284,0.11670112609863281
120007589629.9364,d4:ca:6e:f1:77:09,-2.3777928352355957,-29.552108764648438,92.23274230957031,-0.0957450121641159,-0.040620461106300354,0.11365413665771484
120007606300.2698,d4:ca:6e:f1:77:09,-2.3831281661987305,-29.553829193115234,92.236328125,-0.10313916206359863,-0.06167124956846237,0.11953449249267578
120007622970.60321,d4:ca:6e:f1:77:09,-2.3899264335632324,-29.55495262145996,92.23906707763672,-0.10714641213417053,-0.051801808178424835,0.11124134063720703
120007639640.93661,d4:ca:6e:f1:77:09,-2.3938958644866943,-29.555112838745117,92.24205017089844,-0.09503558278083801,-0.053962621837854385,0.12112617492675781
120007656311.27002,d4:ca:6e:f1:77:09,-2.3987293243408203,-29.558879852294922,92.24503326416016,-0.08108904957771301,-0.05178984999656677,0.10555458068847656
120007672981.60342,d4:ca:6e:f1:77:09,-2.404491424560547,-29.560075759887695,92.2470703125,-0.07002515345811844,-0.06411133706569672,0.12251091003417969
120007689651.93683,d4:ca:6e:f1:77:09,-2.4098920822143555,-29.56336784362793,92.2511978149414,-0.08168638497591019,-0.045970357954502106,0.12874412536621094
120007706322.27023,d4:ca:6e:f1:77:09,-2.4140625,-29.5668888092041,92.2563705444336,-0.09435152262449265,-0.047328196465969086,0.11028671264648438
120007722992.60364,d4:ca:6e:f1:77:09,-2.419973373413086,-29.56854820251465,92.2603759765625,-0.10396168380975723,-0.053353436291217804,0.11240577697753906
120007739662.93704,d4:ca:6e:f1:77:09,-2.426421642303467,-29.570863723754883,92.26493835449219,-0.10940422862768173,-0.06381931900978088,0.10143375396728516
120007756333.27045,d4:ca:6e:f1:77:09,-2.430403470993042,-29.573537826538086,92.26901245117188,-0.12045884132385254,-0.05526089668273926,0.11856555938720703
120007773003.60385,d4:ca:6e:f1:77:09,-2.434683322906494,-29.575719833374023,92.27275085449219,-0.10608237981796265,-0.07811610400676727,0.10995960235595703
120007789673.93726,d4:ca:6e:f1:77:09,-2.4402832984924316,-29.5792236328125,92.27544403076172,-0.10564753413200378,-0.05130516365170479,0.11225032806396484
120007806344.27066,d4:ca:6e:f1:77:09,-2.4452168941497803,-29.58009147644043,92.27843475341797,-0.107718825340271,-0.0723036453127861,0.1133575439453125
120007823014.60406,d4:ca:6e:f1:77:09,-2.448657274246216,-29.582881927490234,92.28082275390625,-0.08343570679426193,-0.04530194029211998,0.10917472839355469
120007839684.93747,d4:ca:6e:f1:77:09,-2.452120780944824,-29.580081939697266,92.2835922241211,-0.07952132821083069,-0.06614821404218674,0.1352224349975586
120007856355.27087,d4:ca:6e:f1:77:09,-2.4576714038848877,-29.587984085083008,92.28732299804688,-0.09494886547327042,-0.0668884888291359,0.11452865600585938
120007873025.60428,d4:ca:6e:f1:77:09,-2.461923360824585,-29.582157135009766,92.29315185546875,-0.13007895648479462,-0.007516293786466122,0.11532402038574219
120007889695.93768,d4:ca:6e:f1:77:09,-2.468724250793457,-29.58255958557129,92.29631805419922,-0.12925831973552704,-0.10877303034067154,0.1680898666381836
120007906366.27109,d4:ca:6e:f1:77:09,-2.47446608543396,-29.578100204467773,92.29811096191406,-0.14776642620563507,-0.060804352164268494,0.11633110046386719
120007923036.60449,d4:ca:6e:f1:77:09,-2.4799888134002686,-29.58405303955078,92.29773712158203,-0.12166324257850647,-0.12289748340845108,0.15965747833251953
120007939706.9379,d4:ca:6e:f1:77:09,-2.4862077236175537,-29.59632682800293,92.29875183105469,-0.051471903920173645,0.002331351861357689,0.044394493103027344
120007956377.2713,d4:ca:6e:f1:77:09,-2.489614248275757,-29.593017578125,92.29985809326172,-0.029658939689397812,-0.002430703490972519,0.02616596221923828
120007973047.6047,d4:ca:6e:f1:77:09,-2.4934322834014893,-29.5806884765625,92.30474090576172,-0.04496566578745842,-0.06856315582990646,0.16611194610595703
120007989717.93811,d4:ca:6e:f1:77:09,-2.4978187084198,-29.594524383544922,92.31281280517578,-0.08456075936555862,-0.12110400944948196,0.1476573944091797
120008006388.27151,d4:ca:6e:f1:77:09,-2.503574848175049,-29.593191146850586,92.31815338134766,-0.14186255633831024,-0.016235310584306717,0.013344764709472656
120008023058.60492,d4:ca:6e:f1:77:09,-2.5088882446289062,-29.589475631713867,92.32109069824219,-0.17633987963199615,-0.10050137341022491,0.20207691192626953
120008039728.93832,d4:ca:6e:f1:77:09,-2.5127360820770264,-29.604318618774414,92.32276916503906,-0.17355501651763916,-0.03332041576504707,0.08326530456542969
120008056399.27173,d4:ca:6e:f1:77:09,-2.515263795852661,-29.596576690673828,92.32421875,-0.12125153094530106,-0.04225289076566696,0.0713796615600586
120008072893.8,d4:ca:6e:f1:77:09,-2.5194222927093506,-29.5985164642334,92.32635498046875,-0.07664617151021957,-0.0955422893166542,0.1739358901977539
120008089564.1334,d4:ca:6e:f1:77:09,-2.5215344429016113,-29.604137420654297,92.32638549804688,-0.04625611752271652,-0.06354428827762604,0.10251235961914062
120008106234.46681,d4:ca:6e:f1:77:09,-2.523707866668701,-29.60297966003418,92.32756805419922,-0.07153621315956116,-0.0447927787899971,0.10307025909423828
120008122904.80022,d4:ca:6e:f1:77:09,-2.5270066261291504,-29.6023006439209,92.33171081542969,-0.10323113203048706,-0.06712093949317932,0.14907264709472656
120008139575.13362,d4:ca:6e:f1:77:09,-2.5307869911193848,-29.60836410522461,92.33631134033203,-0.12400923669338226,-0.06979471445083618,0.1163949966430664
120008156245.46703,d4:ca:6e:f1:77:09,-2.5343801975250244,-29.60512351989746,92.3382797241211,-0.15528540313243866,-0.04942340776324272,0.08759403228759766
120008172915.80043,d4:ca:6e:f1:77:09,-2.5364341735839844,-29.606557846069336,92.33979797363281,-0.1539001762866974,-0.10386546701192856,0.1603536605834961
120008189586.13383,d4:ca:6e:f1:77:09,-2.5394060611724854,-29.614450454711914,92.34101867675781,-0.1299305409193039,-0.045726168900728226,0.07864665985107422
120008206256.46724,d4:ca:6e:f1:77:09,-2.542203187942505,-29.608829498291016,92.34272003173828,-0.09667527675628662,-0.047443196177482605,0.11614227294921875
120008222926.80064,d4:ca:6e:f1:77:09,-2.544816732406616,-29.63174057006836,92.34564971923828,-0.12129142880439758,0.006777359638363123,-0.0017681121826171875
120008239597.13405,d4:ca:6e:f1:77:09,-2.5466721057891846,-29.586666107177734,92.34525299072266,-0.07482844591140747,-0.24169249832630157,0.3497304916381836
120008256267.46745,d4:ca:6e:f1:77:09,-2.5431711673736572,-29.653451919555664,92.36296844482422,-0.398563951253891,0.2453746497631073,-0.17865276336669922
120008272937.80086,d4:ca:6e:f1:77:09,-2.5484726428985596,-29.367408752441406,92.60647583007812,-0.6935267448425293,0.2732944190502167,0.5967330932617188
120008289608.13426,d4:ca:6e:f1:77:09,-2.562843084335327,-29.856481552124023,92.6927490234375,0.48674705624580383,-1.0089300870895386,0.6263370513916016
120008306278.46767,d4:ca:6e:f1:77:09,-2.566537618637085,-29.968250274658203,92.70101928710938,0.42937353253364563,0.40549418330192566,-0.8182296752929688
120008322948.80107,d4:ca:6e:f1:77:09,-2.568467378616333,-29.936689376831055,92.69693756103516,-0.1655963957309723,-0.19696353375911713,0.3631782531738281
120008339619.13448,d4:ca:6e:f1:77:09,-2.5729055404663086,-30.001766204833984,92.7020492553711,-0.1428638994693756,-0.04289727658033371,0.11290454864501953
120008356289.46788,d4:ca:6e:f1:77:09,-2.57244873046875,-29.982440948486328,92.70658111572266,-0.11945560574531555,0.10427013784646988,-0.12508487701416016
120008372959.80128,d4:ca:6e:f1:77:09,-2.5666348934173584,-29.866962432861328,92.6670913696289,-0.18232230842113495,-0.5380163788795471,0.6430578231811523
120008389630.13469,d4:ca:6e:f1:77:09,-2.5909342765808105,-30.61448860168457,92.67915344238281,-0.7129189372062683,-0.7177042365074158,0.6393728256225586
120008406300.4681,d4:ca:6e:f1:77:09,-2.6035943031311035,-31.103042602539062,92.71304321289062,-1.1996537446975708,-0.3586758077144623,0.0026941299438476562
120008422970.8015,d4:ca:6e:f1:77:09,-2.6168782711029053,-31.762081146240234,92.7445068359375,-0.3348863422870636,-0.6819534301757812,0.7988824844360352
120008439641.1349,d4:ca:6e:f1:77:09,-2.663583993911743,-33.426021575927734,92.72235107421875,0.0601600781083107,-1.9414442777633667,2.515749931335449
120008456311.4683,d4:ca:6e:f1:77:09,-2.7720139026641846,-36.70389938354492,92.7815933227539,0.30565688014030457,-2.624380588531494,2.0940446853637695
120008472981.80171,d4:ca:6e:f1:77:09,-2.953007221221924,-41.14120864868164,93.22224426269531,0.1051076352596283,-2.437774896621704,1.1609954833984375
120008489652.13512,d4:ca:6e:f1:77:09,-3.23364520072937,-46.196693420410156,94.13260650634766,0.7603675127029419,-0.8101547956466675,-0.025903701782226562
120008506322.46852,d4:ca:6e:f1:77:09,-3.6141326427459717,-51.44194412231445,95.30926513671875,0.7599404454231262,0.10250046849250793,-0.4921760559082031
120008522992.80193,d4:ca:6e:f1:77:09,-4.137461185455322,-56.572147369384766,96.68087005615234,1.0204532146453857,0.16223609447479248,-0.6697320938110352
120008539663.13533,d4:ca:6e:f1:77:09,-4.9043169021606445,-61.82281494140625,98.42466735839844,1.6244796514511108,-0.43468865752220154,-0.5541677474975586
120008556333.46873,d4:ca:6e:f1:77:09,-6.2726006507873535,-67.80044555664062,100.8357162475586,1.1589468717575073,-1.1440787315368652,-0.46364307403564453
120008573003.80214,d4:ca:6e:f1:77:09,-9.534610748291016,-75.27356719970703,105.22201538085938,0.3417627215385437,-2.103729248046875,-1.437098503112793
120008589674.13554,d4:ca:6e:f1:77:09,-18.765897750854492,-81.42959594726562,114.5367660522461,-1.800584077835083,4.571162700653076,-1.4574546813964844
120008606344.46895,d4:ca:6e:f1:77:09,-33.929962158203125,-84.6957778930664,129.59230041503906,-1.0084950923919678,3.3730342388153076,-0.056815147399902344
120008623014.80235,d4:ca:6e:f1:77:09,-51.20881271362305,-85.94353485107422,146.87245178222656,-0.8531898260116577,2.592683792114258,0.12737178802490234
120008639685.13576,d4:ca:6e:f1:77:09,-71.27920532226562,-86.48821258544922,166.85545349121094,-0.8027268648147583,0.2502305805683136,0.16647052764892578
120008656355.46916,d4:ca:6e:f1:77:09,-95.13920593261719,-86.52239227294922,-169.39675903320312,-0.2643849849700928,0.7073367238044739,0.5961360931396484
120008673025.80257,d4:ca:6e:f1:77:09,-92.81147003173828,-86.45917510986328,-171.82313537597656,-1.2317237854003906,1.8210818767547607,-0.05338001251220703
120008689696.13597,d4:ca:6e:f1:77:09,-82.5140609741211,-86.42214965820312,177.7152862548828,-0.3632639944553375,-0.8252621293067932,0.30560970306396484
120008706366.46938,d4:ca:6e:f1:77:09,-80.51740264892578,-86.42221069335938,175.48892211914062,-0.14986185729503632,-0.632847011089325,0.01096343994140625
120008723036.80278,d4:ca:6e:f1:77:09,-74.62494659423828,-86.3941879272461,169.3856658935547,-0.304087370634079,-0.10950503498315811,0.33350467681884766
120008739707.13618,d4:ca:6e:f1:77:09,-62.61445617675781,-86.14969635009766,157.25857543945312,-0.3395233452320099,-0.5040711164474487,0.36655235290527344
120008756377.46959,d4:ca:6e:f1:77:09,-56.34755325317383,-85.9067153930664,150.9540252685547,-0.21685181558132172,-1.1506730318069458,0.17261123657226562
120008773047.803,d4:ca:6e:f1:77:09,-54.3034782409668,-85.80535125732422,148.90249633789062,-0.20492851734161377,-0.6317781209945679,0.18526172637939453
120008789718.1364,d4:ca:6e:f1:77:09,-53.0738639831543,-85.74053192138672,147.6654510498047,-0.25034165382385254,-0.18828687071800232,0.2483072280883789
120008806388.4698,d4:ca:6e:f1:77:09,-52.25472640991211,-85.69789123535156,146.84149169921875,-0.18896836042404175,-0.42502710223197937,0.1789264678955078
120008823058.8032,d4:ca:6e:f1:77:09,-52.481082916259766,-85.71806335449219,147.06500244140625,-0.17264409363269806,-0.38964229822158813,0.23946285247802734
120008839729.13661,d4:ca:6e:f1:77:09,-52.6923713684082,-85.74540710449219,147.27015686035156,-0.06001546233892441,-0.1416701078414917,0.2551126480102539
120008856399.47002,d4:ca:6e:f1:77:09,-52.549835205078125,-85.75204467773438,147.12384033203125,-0.3407195806503296,-0.3147066831588745,0.2645854949951172
120008873069.80342,d4:ca:6e:f1:77:09,-53.404396057128906,-85.80689239501953,147.97723388671875,-0.23278024792671204,-0.3495892286300659,0.2508554458618164
120008889740.13683,d4:ca:6e:f1:77:09,-54.63032913208008,-85.87934875488281,149.20172119140625,-0.2715756297111511,-0.26565900444984436,0.23978233337402344
120008906410.47023,d4:ca:6e:f1:77:09,-55.95364761352539,-85.95417022705078,150.52197265625,-0.27341312170028687,-0.23902922868728638,0.2385549545288086
120008923080.80363,d4:ca:6e:f1:77:09,-56.738006591796875,-86.00267028808594,151.2969512939453,-0.3730272650718689,-0.03263043239712715,0.2529315948486328
120008939751.13704,d4:ca:6e:f1:77:09,-55.89876174926758,-85.9991455078125,150.41600036621094,-0.27705323696136475,0.007619556505233049,0.21787357330322266
120008956421.47044,d4:ca:6e:f1:77:09,-55.06208419799805,-85.98663330078125,149.5503692626953,0.047985102981328964,-0.5070458650588989,0.3029499053955078
120008973091.80385,d4:ca:6e:f1:77:09,-55.41047286987305,-86.00953674316406,149.8997802734375,-0.20009192824363708,-0.29502883553504944,0.2485790252685547
120008989762.13725,d4:ca:6e:f1:77:09,-54.927574157714844,-86.01287078857422,149.3968048095703,-0.15311218798160553,0.4558318853378296,0.16520977020263672
120009006432.47066,d4:ca:6e:f1:77:09,-49.47576141357422,-85.78490447998047,143.86647033691406,-0.29236456751823425,0.23971228301525116,0.29285717010498047
120009023102.80406,d4:ca:6e:f1:77:09,-46.55495071411133,-85.644775390625,140.89492797851562,-0.2241741120815277,-1.022078037261963,0.23439407348632812
120009039773.13747,d4:ca:6e:f1:77:09,-46.039573669433594,-85.65151977539062,140.34986877441406,-0.28788939118385315,-0.35425707697868347,0.1841106414794922
120009056443.47087,d4:ca:6e:f1:77:09,-47.18581771850586,-85.74393463134766,141.49307250976562,-0.17396996915340424,-0.5573270916938782,0.3045969009399414
120009073113.80428,d4:ca:6e:f1:77:09,-48.9443359375,-85.87118530273438,143.2553253173828,-0.10586757957935333,-0.2814631462097168,0.20779991149902344
120009089784.13768,d4:ca:6e:f1:77:09,-46.83313751220703,-85.77043151855469,141.1211395263672,0.04404233396053314,0.9764923453330994,0.36875057220458984
120009106454.47108,d4:ca:6e:f1:77:09,-47.74185562133789,-85.90432739257812,141.94752502441406,-0.42906755208969116,-1.3961633443832397,-0.16776561737060547
120009123124.80449,d4:ca:6e:f1:77:09,-49.72523498535156,-86.09234619140625,143.88211059570312,0.013749399222433567,-0.31824108958244324,0.48897361755371094
120009139795.1379,d4:ca:6e:f1:77:09,-49.81267547607422,-86.17854309082031,143.91859436035156,-0.24458016455173492,0.2006399780511856,0.1374378204345703
120009156465.4713,d4:ca:6e:f1:77:09,-49.90663146972656,-86.27721405029297,143.9593048095703,-0.12991712987422943,-0.4520875811576843,0.24404621124267578
120009173135.8047,d4:ca:6e:f1:77:09,-51.16168212890625,-86.43344116210938,145.1682891845703,-0.17434434592723846,-0.33732709288597107,0.21247386932373047
120009189806.1381,d4:ca:6e:f1:77:09,-52.111328125,-86.58464813232422,146.06260681152344,-0.38722747564315796,-0.16421765089035034,0.33728599548339844
120009206476.47151,d4:ca:6e:f1:77:09,-52.644142150878906,-86.70105743408203,146.56126403808594,-0.327205091714859,-0.22004559636116028,-0.3074531555175781
120009223146.80492,d4:ca:6e:f1:77:09,-59.434566497802734,-87.07430267333984,153.28939819335938,-0.04501372203230858,-1.590523600578308,0.38831520080566406
120009239817.13832,d4:ca:6e:f1:77:09,-71.0152359008789,-87.42215728759766,164.8591766357422,-0.17618364095687866,0.20746919512748718,0.3638191223144531
120009256487.47173,d4:ca:6e:f1:77:09,-78.78914642333984,-87.5925521850586,172.63233947753906,0.014154852367937565,0.020527653396129608,0.5062322616577148
120009273157.80513,d4:ca:6e:f1:77:09,-81.81832122802734,-87.62084197998047,175.69337463378906,-0.33830541372299194,0.6984397768974304,0.3900594711303711
120009289828.13853,d4:ca:6e:f1:77:09,-81.58740234375,-87.6233139038086,175.4625701904297,-0.22160013020038605,0.19170571863651276,0.2778635025024414
120009306498.47194,d4:ca:6e:f1:77:09,-78.61354064941406,-87.60478210449219,172.48358154296875,-0.23153282701969147,0.05717349797487259,0.19118404388427734
120009323168.80534,d4:ca:6e:f1:77:09,-73.72220611572266,-87.5605697631836,167.58169555664062,-0.23444072902202606,-0.045291099697351456,0.33770179748535156
120009339839.13875,d4:ca:6e:f1:77:09,-67.30939483642578,-87.46842956542969,161.1546630859375,-0.2377527356147766,-0.20132392644882202,0.25020694732666016
120009356509.47215,d4:ca:6e:f1:77:09,-63.227142333984375,-87.392333984375,157.06283569335938,-0.194377601146698,-0.492423415184021,0.1718893051147461
120009373179.80556,d4:ca:6e:f1:77:09,-60.641937255859375,-87.34156036376953,154.4715576171875,-0.21007536351680756,-0.3672867715358734,0.2411632537841797
120009389850.13896,d4:ca:6e:f1:77:09,-60.18964385986328,-87.34303283691406,154.01690673828125,-0.17775337398052216,-0.5091502070426941,0.19682693481445312
120009406520.47237,d4:ca:6e:f1:77:09,-60.80459976196289,-87.37348937988281,154.63311767578125,-0.17596839368343353,-0.2761339545249939,0.180023193359375
120009423190.80577,d4:ca:6e:f1:77:09,-62.90548324584961,-87.44219970703125,156.73773193359375,-0.16367675364017487,-0.4202573299407959,0.21494007110595703
120009439861.13918,d4:ca:6e:f1:77:09,-66.75344848632812,-87.53621673583984,160.5944366455078,-0.15926751494407654,-0.6359162926673889,0.20212554931640625
120009456531.47258,d4:ca:6e:f1:77:09,-78.32130432128906,-87.70663452148438,172.18104553222656,-0.1309041678905487,-0.7545207142829895,0.16117095947265625
120009473201.80598,d4:ca:6e:f1:77:09,-76.21725463867188,-87.6995620727539,170.0540313720703,-0.39552003145217896,1.087553858757019,0.36615467071533203
120009489872.13939,d4:ca:6e:f1:77:09,-78.74382781982422,-87.73860168457031,172.5417022705078,-0.1471184641122818,-0.3635809123516083,0.2653961181640625
120009506542.4728,d4:ca:6e:f1:77:09,-82.91163635253906,-87.7800064086914,176.71409606933594,-0.20181052386760712,0.12073364853858948,0.2865180969238281
120009523212.8062,d4:ca:6e:f1:77:09,-82.90402221679688,-87.79149627685547,176.70567321777344,-0.1802489012479782,-0.2774519920349121,0.2144918441772461
120009539883.1396,d4:ca:6e:f1:77:09,-82.81198120117188,-87.80724334716797,176.61207580566406,-0.19554924964904785,-0.13542091846466064,0.22541522979736328
120009556553.473,d4:ca:6e:f1:77:09,-82.47998809814453,-87.822021484375,176.2788848876953,-0.15751762688159943,-0.29803261160850525,0.2437114715576172
120009573031.6,d4:ca:6e:f1:77:09,-82.11991882324219,-87.83057403564453,175.91970825195312,-0.20656552910804749,-0.1602105051279068,0.28728771209716797
120009589701.93341,d4:ca:6e:f1:77:09,-81.87022399902344,-87.83934020996094,175.67041015625,-0.20099760591983795,-0.23868657648563385,0.21645355224609375
120009606372.26682,d4:ca:6e:f1:77:09,-81.24055480957031,-87.84732818603516,175.03880310058594,-0.21169961988925934,-0.22801920771598816,0.21459293365478516
120009623042.60022,d4:ca:6e:f1:77:09,-80.89317321777344,-87.85771179199219,174.6912384033203,-0.20428793132305145,-0.25395944714546204,0.2546854019165039
120009639712.93362,d4:ca:6e:f1:77:09,-80.82209777832031,-87.86981201171875,174.62086486816406,-0.1859254539012909,-0.22858580946922302,0.265106201171875
120009656383.26703,d4:ca:6e:f1:77:09,-80.56793212890625,-87.88105010986328,174.3677215576172,-0.17620107531547546,-0.2149863839149475,0.19498443603515625
120009673053.60043,d4:ca:6e:f1:77:09,-80.5423583984375,-87.89764404296875,174.34239196777344,-0.16079522669315338,-0.2634350657463074,0.2268991470336914
120009689723.93384,d4:ca:6e:f1:77:09,-79.72161865234375,-87.9040756225586,173.52401733398438,-0.20537018775939941,-0.24046753346920013,0.2984189987182617
120009706394.26724,d4:ca:6e:f1:77:09,-79.35836791992188,-87.9149398803711,173.16122436523438,-0.21600672602653503,-0.16654151678085327,0.24750423431396484
120009723064.60065,d4:ca:6e:f1:77:09,-78.8549575805664,-87.92566680908203,172.65634155273438,-0.21390457451343536,-0.24173283576965332,0.1948995590209961
120009739734.93405,d4:ca:6e:f1:77:09,-77.89676666259766,-87.93275451660156,171.69772338867188,-0.19584719836711884,-0.16061529517173767,0.31459808349609375
120009756405.26746,d4:ca:6e:f1:77:09,-77.75727081298828,-87.94139099121094,171.55747985839844,-0.1320708990097046,-0.32341498136520386,0.2528505325317383
120009773075.60086,d4:ca:6e:f1:77:09,-79.36869812011719,-87.96615600585938,173.16879272460938,-0.18019011616706848,-0.16612353920936584,0.22889232635498047
120009789745.93427,d4:ca:6e:f1:77:09,-79.53958892822266,-87.97744750976562,173.33863830566406,-0.23027265071868896,-0.15336565673351288,0.26912975311279297
120009806416.26767,d4:ca:6e:f1:77:09,-79.86428833007812,-87.98715209960938,173.6634521484375,-0.23181913793087006,-0.2053520828485489,0.27062034606933594
120009823086.60107,d4:ca:6e:f1:77:09,-79.38484191894531,-87.9956283569336,173.18406677246094,-0.20240238308906555,-0.1028544008731842,0.20092201232910156
120009839756.93448,d4:ca:6e:f1:77:09,-79.1275634765625,-88.00434112548828,172.92161560058594,-0.13639095425605774,-0.40898647904396057,0.24735450744628906
120009856427.26788,d4:ca:6e:f1:77:09,-84.78243255615234,-88.04115295410156,178.5870819091797,-0.13686704635620117,-0.2534017860889435,0.35828399658203125
120009873097.60129,d4:ca:6e:f1:77:09,-87.64250946044922,-88.0519790649414,-178.5461883544922,-0.20447948575019836,0.09212466329336166,0.200103759765625
120009889767.9347,d4:ca:6e:f1:77:09,-83.91232299804688,-88.04875946044922,177.72303771972656,-0.23786360025405884,0.4140673577785492,0.2261791229248047
120009906438.2681,d4:ca:6e:f1:77:09,-77.31128692626953,-88.01732635498047,171.12176513671875,-0.16709180176258087,-0.306674987077713,0.2703866958618164
120009923108.6015,d4:ca:6e:f1:77:09,-76.53893280029297,-88.01525115966797,170.3478240966797,-0.15124450623989105,-0.6552253365516663,0.2582540512084961
120009939778.9349,d4:ca:6e:f1:77:09,-74.958251953125,-88.00973510742188,168.77059936523438,-0.1935432255268097,0.1647554188966751,0.18755054473876953
120009956449.26831,d4:ca:6e:f1:77:09,-69.66016387939453,-87.96048736572266,163.47084045410156,-0.11691068857908249,-0.10448940098285675,0.23061275482177734
120009973119.60172,d4:ca:6e:f1:77:09,-68.04412078857422,-87.9455795288086,161.85804748535156,-0.08758511394262314,-0.3300658166408539,0.3442373275756836
120009989789.93512,d4:ca:6e:f1:77:09,-70.6507797241211,-87.98550415039062,164.46852111816406,-0.1190628930926323,-0.6486678719520569,0.22057628631591797
120010006460.26852,d4:ca:6e:f1:77:09,-73.21636962890625,-88.01959991455078,167.03463745117188,-0.23647022247314453,-0.010289418511092663,0.19531631469726562
120010023130.60193,d4:ca:6e:f1:77:09,-74.62272644042969,-88.0413589477539,168.4403533935547,-0.27344685792922974,-0.06573225557804108,0.2443857192993164
120010039800.93533,d4:ca:6e:f1:77:09,-75.10376739501953,-88.05258178710938,168.9192657470703,-0.2304592877626419,-0.13617639243602753,0.28914737701416016
120010056471.26874,d4:ca:6e:f1:77:09,-75.5191650390625,-88.06002807617188,169.33270263671875,-0.18872897326946259,-0.16745010018348694,0.28774452209472656
120010073141.60214,d4:ca:6e:f1:77:09,-75.94329071044922,-88.06488037109375,169.75718688964844,-0.14032121002674103,-0.20998483896255493,0.2805137634277344
120010089811.93555,d4:ca:6e:f1:77:09,-76.89413452148438,-88.06912994384766,170.7117462158203,-0.10001668334007263,-0.2590150833129883,0.3021697998046875
120010106482.26895,d4:ca:6e:f1:77:09,-78.09575653076172,-88.06822204589844,171.92774963378906,0.0070044491440057755,-0.2718442678451538,0.331024169921875
120010123152.60236,d4:ca:6e:f1:77:09,-84.55082702636719,-88.08113098144531,178.44677734375,0.2166397124528885,-1.6654853820800781,0.4052257537841797
120010139822.93576,d4:ca:6e:f1:77:09,-87.93484497070312,-88.06407165527344,-177.94293212890625,-0.3033844232559204,-0.7267530560493469,0.22759628295898438
120010156493.26917,d4:ca:6e:f1:77:09,-88.87822723388672,-88.03597259521484,-176.68267822265625,-0.2358868569135666,-0.1963179111480713,0.18810558319091797
120010173163.60257,d4:ca:6e:f1:77:09,-89.30464172363281,-87.99797058105469,-176.0373077392578,-0.4627078175544739,1.4713795185089111,0.20697307586669922
120010189833.93597,d4:ca:6e:f1:77:09,-86.493408203125,-87.97049713134766,-178.8476104736328,-0.25154638290405273,0.7835606336593628,0.04074382781982422
120010206504.26938,d4:ca:6e:f1:77:09,-86.93709564208984,-87.97154998779297,-178.41476440429688,-0.1401873230934143,-0.3461882770061493,0.12753677368164062
120010223174.60278,d4:ca:6e:f1:77:09,-87.09415435791016,-87.97088623046875,-178.258056640625,-0.12327589094638824,-0.014045330695807934,0.3306407928466797
120010239844.93619,d4:ca:6e:f1:77:09,-91.06100463867188,-87.97357940673828,-174.28048706054688,0.09533409029245377,-0.5799846053123474,0.24071502685546875
120010256515.26959,d4:ca:6e:f1:77:09,-96.46195983886719,-87.94996643066406,-168.84979248046875,-0.13532570004463196,-0.34976446628570557,0.1587848663330078
120010273185.603,d4:ca:6e:f1:77:09,-99.9777603149414,-87.93816375732422,-165.29920959472656,0.13982345163822174,-0.0012219452764838934,0.29743480682373047
120010289855.9364,d4:ca:6e:f1:77:09,-103.6506118774414,-87.91456604003906,-161.5768280029297,-0.0887833684682846,-0.04668246954679489,0.23936843872070312
120010306526.2698,d4:ca:6e:f1:77:09,-105.60015106201172,-87.89764404296875,-159.58883666992188,-0.19938115775585175,-0.00875231996178627,0.2415475845336914
120010323196.60321,d4:ca:6e:f1:77:09,-106.22848510742188,-87.89662170410156,-158.9477996826172,-0.47714829444885254,0.5095652937889099,0.22903823852539062
120010339866.93661,d4:ca:6e:f1:77:09,-105.30057525634766,-87.91062927246094,-159.891357421875,-0.13734088838100433,-0.26282620429992676,0.2099313735961914
120010356537.27002,d4:ca:6e:f1:77:09,-104.51273345947266,-87.92208099365234,-160.70120239257812,-0.3628256618976593,0.07183058559894562,0.3133506774902344
120010373207.60342,d4:ca:6e:f1:77:09,-104.06138610839844,-87.9319076538086,-161.21246337890625,-0.2836377024650574,0.4775468409061432,0.20090293884277344
120010389877.93683,d4:ca:6e:f1:77:09,-103.18052673339844,-87.94253540039062,-162.26109313964844,-0.27347123622894287,0.8179912567138672,0.2407684326171875
120010406548.27023,d4:ca:6e:f1:77:09,-99.46401977539062,-87.97725677490234,-166.16346740722656,-0.05124324932694435,-0.4361068606376648,0.09350967407226562
120010423218.60364,d4:ca:6e:f1:77:09,-97.0336685180664,-87.99992370605469,-168.6734161376953,0.11520550400018692,-1.3500463962554932,0.3264026641845703
120010439888.93704,d4:ca:6e:f1:77:09,-97.86836242675781,-88.00257110595703,-167.84326171875,-0.11219567805528641,-0.3733403980731964,0.34732913970947266
120010456559.27045,d4:ca:6e:f1:77:09,-96.91598510742188,-88.01515197753906,-168.7926025390625,-0.16256454586982727,-0.1800517588853836,0.06571674346923828
120010473229.60385,d4:ca:6e:f1:77:09,-95.44406127929688,-88.03148651123047,-170.2664031982422,-0.21310529112815857,0.18864090740680695,0.2888212203979492
120010489899.93726,d4:ca:6e:f1:77:09,-90.2771987915039,-88.0519790649414,-175.44247436523438,-0.2113829106092453,0.021717412397265434,0.29909610748291016
120010506570.27066,d4:ca:6e:f1:77:09,-81.32013702392578,-88.04485321044922,175.57650756835938,-0.20998327434062958,0.9557883143424988,0.08168792724609375
120010523240.60406,d4:ca:6e:f1:77:09,-70.77289581298828,-87.96568298339844,164.96168518066406,-0.1254929155111313,-0.651343584060669,0.3612852096557617
120010539910.93747,d4:ca:6e:f1:77:09,-68.09160614013672,-87.94176483154297,162.15280151367188,-0.1333368718624115,0.4555216431617737,0.3230247497558594
120010556581.27087,d4:ca:6e:f1:77:09,-67.46185302734375,-87.9442367553711,161.40359497070312,-0.07016921043395996,-0.7070707082748413,0.15703487396240234
120010573251.60428,d4:ca:6e:f1:77:09,-67.17232513427734,-87.9481430053711,161.05813598632812,-0.06051166355609894,-1.2083197832107544,0.29306793212890625
120010589921.93768,d4:ca:6e:f1:77:09,-70.11858367919922,-87.99944305419922,164.0108184814453,0.12785030901432037,-0.19269141554832458,0.34587669372558594
120010606592.27109,d4:ca:6e:f1:77:09,-74.52897644042969,-88.04875946044922,168.453369140625,-0.031980905681848526,-0.34668490290641785,0.24988555908203125
120010622970.1,d4:ca:6e:f1:77:09,-80.2819595336914,-88.09237670898438,174.29315185546875,0.19963842630386353,-0.9549774527549744,0.2805652618408203
120010639640.43341,d4:ca:6e:f1:77:09,-84.06403350830078,-88.10834503173828,178.30422973632812,-0.5124635696411133,-1.040767788887024,0.2214193344116211
120010656310.76682,d4:ca:6e:f1:77:09,-81.7516098022461,-88.09978485107422,176.26820373535156,-0.29162830114364624,0.515518307685852,0.1855945587158203
120010672981.10022,d4:ca:6e:f1:77:09,-78.45773315429688,-88.07908630371094,173.1220245361328,-0.3070848882198334,1.317658543586731,0.3219747543334961
120010689651.43362,d4:ca:6e:f1:77:09,-78.47201538085938,-88.07278442382812,173.1734619140625,-0.1568792760372162,0.08381780236959457,0.2593059539794922
120010706321.76703,d4:ca:6e:f1:77:09,-81.54359436035156,-88.08910369873047,176.3022918701172,-0.04995134472846985,-0.5628367066383362,0.17456817626953125
120010722992.10043,d4:ca:6e:f1:77:09,-85.05558013916016,-88.10246276855469,179.88592529296875,-0.07811465114355087,-0.09511034935712814,0.22496891021728516
120010739662.43384,d4:ca:6e:f1:77:09,-84.3205795288086,-88.10504150390625,179.18978881835938,0.06334289908409119,0.9435621500015259,0.19665813446044922
120010756332.76724,d4:ca:6e:f1:77:09,-77.8042221069336,-88.07665252685547,172.64894104003906,-0.08450958132743835,0.23343513906002045,0.18595218658447266
120010773003.10065,d4:ca:6e:f1:77:09,-71.12640380859375,-88.01614379882812,165.93601989746094,-0.24250999093055725,1.6142034530639648,0.24429798126220703
120010789673.43405,d4:ca:6e:f1:77:09,-62.3980598449707,-87.87864685058594,157.0252227783203,-0.5576192140579224,-0.06541889160871506,0.2182760238647461
120010806343.76746,d4:ca:6e:f1:77:09,-61.257747650146484,-87.85816955566406,155.5764617919922,-0.231916144490242,0.37861955165863037,0.2828950881958008
120010823014.10086,d4:ca:6e:f1:77:09,-57.52201843261719,-87.77542114257812,151.51158142089844,-0.31714051961898804,-0.2414165735244751,0.2825918197631836
120010839684.43427,d4:ca:6e:f1:77:09,-61.03242492675781,-87.84097290039062,154.72059631347656,-0.3289773166179657,-1.4943042993545532,0.40251827239990234
120010856354.76767,d4:ca:6e:f1:77:09,-60.577980041503906,-87.84896850585938,154.16014099121094,-0.10593731701374054,-1.0912615060806274,-0.038695335388183594
120010873025.10107,d4:ca:6e:f1:77:09,-62.32466506958008,-87.88816833496094,155.95291137695312,-0.23791813850402832,-1.5293834209442139,0.29204750061035156
120010889695.43448,d4:ca:6e:f1:77:09,-62.26061248779297,-87.8955078125,156.05987548828125,-0.07293384522199631,-0.6694412231445312,0.3544912338256836
120010906365.76788,d4:ca:6e:f1:77:09,-64.17530059814453,-87.94253540039062,158.3060760498047,0.06415313482284546,-1.888464093208313,0.15294837951660156
120010923036.10129,d4:ca:6e:f1:77:09,-63.324344635009766,-87.9399642944336,157.94032287597656,0.7642768621444702,0.27235502004623413,0.24465560913085938
120010939706.4347,d4:ca:6e:f1:77:09,-63.67661666870117,-87.9714584350586,158.6443328857422,-0.014702682383358479,1.5939515829086304,0.22228145599365234
120010956376.7681,d4:ca:6e:f1:77:09,-59.24810791015625,-87.90912628173828,154.2798614501953,-0.0488869771361351,2.6378695964813232,0.2259817123413086
120010973047.1015,d4:ca:6e:f1:77:09,-57.231971740722656,-87.89234161376953,152.22579956054688,0.11623456329107285,-0.31013965606689453,0.17844390869140625
120010989717.4349,d4:ca:6e:f1:77:09,-55.8868293762207,-87.88159942626953,150.81381225585938,-0.32109513878822327,0.09172368049621582,0.26015567779541016
120011006387.76831,d4:ca:6e:f1:77:09,-53.88787078857422,-87.8495101928711,148.75160217285156,-0.36537954211235046,-0.533927321434021,0.26045703887939453
120011023058.10172,d4:ca:6e:f1:77:09,-53.04353332519531,-87.84024047851562,147.83285522460938,-0.007017859723418951,0.7596526145935059,0.2729530334472656
120011039728.43512,d4:ca:6e:f1:77:09,-52.99354934692383,-87.85397338867188,147.6017608642578,-0.3841530680656433,0.21319738030433655,0.2293539047241211
120011056398.76852,d4:ca:6e:f1:77:09,-51.731990814208984,-87.83499908447266,146.10922241210938,-0.3252759575843811,1.2744306325912476,0.1987009048461914
120011073069.10193,d4:ca:6e:f1:77:09,-50.19338607788086,-87.80109405517578,144.21224975585938,-0.2987273037433624,0.15155072510242462,0.3213777542114258
120011089739.43533,d4:ca:6e:f1:77:09,-52.200077056884766,-87.87828063964844,145.9159393310547,0.0016743355663493276,-1.7064999341964722,0.48972415924072266
120011106409.76874,d4:ca:6e:f1:77:09,-51.30870056152344,-87.756591796875,144.9960174560547,0.17806091904640198,-0.44477513432502747,-0.5940732955932617
120011123080.10214,d4:ca:6e:f1:77:09,-51.99544906616211,-87.79380798339844,145.68165588378906,-0.07084310054779053,-0.07220608741044998,0.4930896759033203
120011139750.43555,d4:ca:6e:f1:77:09,-54.07136917114258,-87.86347961425781,147.76454162597656,0.05097995325922966,-0.7479243874549866,0.5681753158569336
120011156420.76895,d4:ca:6e:f1:77:09,-56.80229568481445,-87.939208984375,150.49879455566406,-0.11527099460363388,-0.13749243319034576,0.0678243637084961
120011173091.10236,d4:ca:6e:f1:77:09,-57.506874084472656,-87.96318054199219,151.20555114746094,-0.16543132066726685,-0.10506404936313629,0.25545597076416016
120011189761.43576,d4:ca:6e:f1:77:09,-58.37581253051758,-87.9817123413086,152.07765197753906,-0.17510361969470978,0.06032860651612282,0.37565040588378906
120011206431.76917,d4:ca:6e:f1:77:09,-58.44132614135742,-87.97938537597656,152.1471710205078,-0.08423376083374023,-0.053819239139556885,0.3498201370239258
120011223102.10257,d4:ca:6e:f1:77:09,-58.581336975097656,-87.97088623046875,152.2952423095703,-0.10300594568252563,-0.0866398811340332,0.32109737396240234
120011239772.43597,d4:ca:6e:f1:77:09,-58.85162353515625,-87.95665740966797,152.57443237304688,-0.1625363826751709,-0.07755430042743683,0.4072103500366211
120011256442.76938,d4:ca:6e:f1:77:09,-58.85066604614258,-87.93399047851562,152.58108520507812,-0.16134193539619446,-0.06236458569765091,0.20154190063476562
120011273113.10278,d4:ca:6e:f1:77:09,-58.51935577392578,-87.89932250976562,152.25650024414062,-0.1352977603673935,-0.09515929967164993,0.15989971160888672
120011289783.43619,d4:ca:6e:f1:77:09,-57.54822540283203,-87.84568786621094,151.2957763671875,0.30163565278053284,-0.6168935298919678,0.14787960052490234
120011306453.76959,d4:ca:6e:f1:77:09,-66.73491668701172,-88.00375366210938,160.59182739257812,0.02459380030632019,-0.8395336866378784,0.26633358001708984
120011323124.103,d4:ca:6e:f1:77:09,-58.059024810791016,-87.83436584472656,152.1207275390625,0.050150495022535324,0.5552079677581787,0.10011768341064453
120011339794.4364,d4:ca:6e:f1:77:09,-58.87183380126953,-87.85717010498047,152.9889373779297,-0.4035066068172455,0.739414632320404,0.21640777587890625
120011356464.7698,d4:ca:6e:f1:77:09,-57.15673065185547,-87.82075500488281,151.27720642089844,0.032359760254621506,0.08171633630990982,0.28915977478027344
120011373135.10321,d4:ca:6e:f1:77:09,-57.9273796081543,-87.843505859375,152.05181884765625,-0.06571191549301147,-0.19269432127475739,0.20363235473632812
120011389805.43661,d4:ca:6e:f1:77:09,-57.019989013671875,-87.82318878173828,151.15122985839844,-0.31072235107421875,-0.06738580018281937,0.24821853637695312
120011406475.77002,d4:ca:6e:f1:77:09,-56.713130950927734,-87.82022094726562,150.85137939453125,-0.1806161254644394,-0.13766297698020935,0.28949832916259766
120011423146.10342,d4:ca:6e:f1:77:09,-56.38124084472656,-87.81439208984375,150.53269958496094,-0.18108147382736206,-0.04743727296590805,0.24490928649902344
120011439816.43683,d4:ca:6e:f1:77:09,-56.12786865234375,-87.8121566772461,150.2929229736328,-0.3148103952407837,-0.08683902770280838,0.24465656280517578
120011456486.77023,d4:ca:6e:f1:77:09,-55.44927978515625,-87.79753112792969,149.61758422851562,-0.1526188999414444,-0.0020346385426819324,0.2674837112426758
120011473157.10364,d4:ca:6e:f1:77:09,-55.3176383972168,-87.79256439208984,149.49192810058594,-0.03330186754465103,-0.037622593343257904,0.25103282928466797
120011489827.43704,d4:ca:6e:f1:77:09,-54.686737060546875,-87.77867889404297,148.865966796875,-0.1550777554512024,-0.11859016120433807,0.25176334381103516
120011506497.77045,d4:ca:6e:f1:77:09,-54.18538284301758,-87.76752471923828,148.3735809326172,0.2041705846786499,-0.10938813537359238,0.25957584381103516
120011522847.599,d4:ca:6e:f1:77:09,-53.517086029052734,-87.75006103515625,147.73638916015625,-0.16710878908634186,-0.1838747262954712,0.2672252655029297
120011539517.9324,d4:ca:6e:f1:77:09,-51.159027099609375,-87.67755126953125,145.43289184570312,-0.1019739881157875,0.0028202864341437817,0.2765998840332031
120011556188.26581,d4:ca:6e:f1:77:09,-47.652503967285156,-87.54090881347656,142.05567932128906,0.26214805245399475,-1.6424380540847778,0.2574729919433594
120011572858.59921,d4:ca:6e:f1:77:09,-47.624820709228516,-87.55216217041016,142.63291931152344,-0.1665797382593155,-4.8896589279174805,0.2927093505859375
120011589528.93262,d4:ca:6e:f1:77:09,-47.42483901977539,-87.55840301513672,143.1515655517578,-0.07795427739620209,1.9694050550460815,0.18892669677734375
120011606199.26602,d4:ca:6e:f1:77:09,-47.053741455078125,-87.54936218261719,143.05020141601562,-0.555978536605835,3.965952157974243,0.227264404296875
120011622869.59943,d4:ca:6e:f1:77:09,-43.075374603271484,-87.37937927246094,139.1414337158203,-0.20827317237854004,0.8735856413841248,0.21820640563964844
120011639539.93283,d4:ca:6e:f1:77:09,-40.50492858886719,-87.24160766601562,136.5847625732422,-0.1388632357120514,0.3505275547504425,0.2894134521484375
120011656210.26624,d4:ca:6e:f1:77:09,-39.69966125488281,-87.1727066040039,135.7537384033203,-0.05620166286826134,-0.15362894535064697,0.2265005111694336
120011672880.59964,d4:ca:6e:f1:77:09,-44.02518844604492,-87.30644989013672,140.06947326660156,0.010242704302072525,-0.8296027779579163,0.32071590423583984
120011689550.93304,d4:ca:6e:f1:77:09,-54.44594955444336,-87.5805435180664,150.5415802001953,0.31165507435798645,-0.6734300255775452,0.2247772216796875
120011706221.26645,d4:ca:6e:f1:77:09,-59.8920783996582,-87.56096649169922,156.10411071777344,0.09130861610174179,0.5941148996353149,0.754547119140625
120011722891.59985,d4:ca:6e:f1:77:09,-63.797149658203125,-87.25776672363281,160.1581573486328,-0.015903394669294357,0.016994137316942215,0.9157943725585938
120011739561.93326,d4:ca:6e:f1:77:09,-69.7851791381836,-86.73590087890625,166.32423400878906,0.11965452879667282,0.2865898907184601,1.0183162689208984
120011756232.26666,d4:ca:6e:f1:77:09,-76.9770736694336,-86.02783203125,173.67625427246094,-0.19019700586795807,0.0240017157047987,0.6017704010009766
120011772902.60007,d4:ca:6e:f1:77:09,-83.56723022460938,-85.23181915283203,-179.5984344482422,0.12199068814516068,-0.45164480805397034,0.2584362030029297
120011789572.93347,d4:ca:6e:f1:77:09,-87.931884765625,-84.43376922607422,-175.03379821777344,0.15275679528713226,-0.11129269003868103,0.08267879486083984
120011806243.26688,d4:ca:6e:f1:77:09,-89.4012222290039,-83.67101287841797,-173.3498077392578,-0.29081180691719055,0.05780603736639023,-0.033875465393066406
120011822913.60028,d4:ca:6e:f1:77:09,-90.07133483886719,-82.99806213378906,-172.5137176513672,-0.4363308250904083,0.2380390614271164,-0.058673858642578125
120011839583.93369,d4:ca:6e:f1:77:09,-90.83018493652344,-82.38743591308594,-171.63075256347656,-0.11201933026313782,0.14030511677265167,0.08675479888916016
120011856254.26709,d4:ca:6e:f1:77:09,-91.95636749267578,-81.80633544921875,-170.42135620117188,-0.5131794810295105,0.3001173138618469,0.3101339340209961
120011872924.6005,d4:ca:6e:f1:77:09,-93.10083770751953,-81.20248413085938,-169.2101593017578,-0.3605369031429291,-0.21236076951026917,0.2517738342285156
120011889594.9339,d4:ca:6e:f1:77:09,-93.03145599365234,-80.5929946899414,-169.22238159179688,-0.4589782655239105,-0.26761093735694885,0.19950294494628906
120011906265.2673,d4:ca:6e:f1:77:09,-92.95965576171875,-79.97944641113281,-169.29054260253906,-0.14137239754199982,-0.10699542611837387,0.3434591293334961
120011922935.60071,d4:ca:6e:f1:77:09,-93.0663070678711,-79.33576202392578,-169.18565368652344,-0.49512365460395813,-0.01106299739331007,0.2882833480834961
120011939605.93411,d4:ca:6e:f1:77:09,-93.3985595703125,-78.65450286865234,-168.88404846191406,-0.21646782755851746,-0.10488837212324142,0.2990102767944336
120011956276.26752,d4:ca:6e:f1:77:09,-93.42045593261719,-77.93903350830078,-168.8870391845703,-0.01742551662027836,-0.22270473837852478,0.29799938201904297
120011972946.60092,d4:ca:6e:f1:77:09,-93.12977600097656,-77.23790740966797,-169.26263427734375,-0.3407633900642395,0.23304064571857452,0.20794200897216797
120011989616.93433,d4:ca:6e:f1:77:09,-92.57958221435547,-76.54313659667969,-169.89556884765625,-0.3287596106529236,-0.1462671011686325,0.16859912872314453
120012006287.26773,d4:ca:6e:f1:77:09,-91.84370422363281,-75.89234924316406,-170.77297973632812,0.10377974808216095,0.10613445937633514,0.180328369140625
120012022957.60114,d4:ca:6e:f1:77:09,-91.72807312011719,-75.26461791992188,-170.9351348876953,0.03275872766971588,-0.009108376689255238,0.1977396011352539
120012039627.93454,d4:ca:6e:f1:77:09,-90.90760803222656,-74.68898010253906,-171.81185913085938,-0.14951765537261963,0.3479689955711365,0.12278366088867188
120012056298.26794,d4:ca:6e:f1:77:09,-90.4767074584961,-74.13128662109375,-172.25772094726562,-0.303557425737381,0.04943637177348137,0.23519039154052734
120012072968.60135,d4:ca:6e:f1:77:09,-89.92928314208984,-73.59033203125,-172.78768920898438,0.18960827589035034,0.010238905437290668,0.24024677276611328
120012089638.93475,d4:ca:6e:f1:77:09,-89.53479766845703,-73.03263092041016,-173.09036254882812,-0.038548607379198074,0.20657816529273987,0.2876596450805664
120012106309.26816,d4:ca:6e:f1:77:09,-88.89579010009766,-72.48409271240234,-173.6289825439453,-0.16755761206150055,0.10268274694681168,0.17998504638671875
120012122979.60156,d4:ca:6e:f1:77:09,-88.649658203125,-71.9774398803711,-173.77792358398438,0.13593901693820953,-0.3322000503540039,0.19337844848632812
120012139649.93497,d4:ca:6e:f1:77:09,-88.47256469726562,-71.47508239746094,-173.8589630126953,-0.0034219834487885237,-0.26373544335365295,0.30727386474609375
120012156320.26837,d4:ca:6e:f1:77:09,-88.59648132324219,-70.98191833496094,-173.6340789794922,-0.3697608411312103,-0.1605624258518219,0.25310802459716797
120012172990.60178,d4:ca:6e:f1:77:09,-88.79171752929688,-70.49425506591797,-173.3540802001953,-0.23734349012374878,-0.25889381766319275,0.24040985107421875
120012189660.93518,d4:ca:6e:f1:77:09,-88.93035125732422,-69.97876739501953,-173.12596130371094,0.05290462076663971,-0.21550112962722778,0.3169403076171875
120012206331.26859,d4:ca:6e:f1:77:09,-89.27845001220703,-69.45638275146484,-172.67555236816406,-0.19673140347003937,0.08480405807495117,0.24266815185546875
120012223001.60199,d4:ca:6e:f1:77:09,-89.59136199951172,-68.94938659667969,-172.28814697265625,-0.38215509057044983,-0.16077153384685516,0.25235462188720703
120012239671.9354,d4:ca:6e:f1:77:09,-89.81050109863281,-68.46558380126953,-172.0253143310547,0.023912757635116577,-0.126512810587883,0.21487712860107422
120012256342.2688,d4:ca:6e:f1:77:09,-90.23454284667969,-67.97379302978516,-171.5361785888672,0.015302814543247223,-0.14947094023227692,0.2705211639404297
120012273012.6022,d4:ca:6e:f1:77:09,-90.59729766845703,-67.4677505493164,-171.0955352783203,-0.41698285937309265,-0.008456501178443432,0.29280662536621094
120012289682.93561,d4:ca:6e:f1:77:09,-90.95452117919922,-66.95613861083984,-170.7020263671875,0.3348858952522278,-0.36114004254341125,0.2923736572265625
120012306353.26901,d4:ca:6e:f1:77:09,-91.52012634277344,-66.41665649414062,-170.0608673095703,-0.5316123962402344,0.3302043080329895,0.34774017333984375
120012323023.60242,d4:ca:6e:f1:77:09,-91.86617279052734,-65.86405944824219,-169.65866088867188,-0.05341557413339615,-0.02771158330142498,0.20540904998779297
120012339693.93582,d4:ca:6e:f1:77:09,-92.08158111572266,-65.30545043945312,-169.34642028808594,-0.1719764620065689,-0.5940024256706238,0.1080770492553711
120012356364.26923,d4:ca:6e:f1:77:09,-92.14828491210938,-64.81886291503906,-169.22750854492188,-0.18441393971443176,0.6390857696533203,0.34278011322021484
120012373034.60263,d4:ca:6e:f1:77:09,-92.18783569335938,-64.3561782836914,-169.10304260253906,0.1140332892537117,-0.09776255488395691,0.2371997833251953
120012389704.93604,d4:ca:6e:f1:77:09,-92.27526092529297,-63.93398666381836,-168.9307403564453,-0.517717719078064,0.4532882869243622,0.1412363052368164
120012406375.26944,d4:ca:6e:f1:77:09,-92.23558807373047,-63.58283996582031,-168.93165588378906,-0.010038861073553562,-0.05386650934815407,0.20581531524658203
120012423027.799,d4:ca:6e:f1:77:09,-92.24131774902344,-63.272010803222656,-168.86158752441406,-0.06459636241197586,-0.03703475743532181,0.18894290924072266
120012439698.1324,d4:ca:6e:f1:77:09,-92.18783569335938,-62.985347747802734,-168.83773803710938,-0.04962669312953949,0.16405537724494934,0.2781524658203125
120012456368.4658,d4:ca:6e:f1:77:09,-92.15570068359375,-62.740997314453125,-168.78399658203125,0.06100171431899071,-0.010782265104353428,0.2227611541748047
120012473038.79921,d4:ca:6e:f1:77:09,-92.19940948486328,-62.56166458129883,-168.64144897460938,0.14276085793972015,-0.18986430764198303,0.15523433685302734
120012489709.13261,d4:ca:6e:f1:77:09,-92.23235321044922,-62.459129333496094,-168.5240478515625,0.15393303334712982,0.08744799345731735,0.18474388122558594
120012506379.46602,d4:ca:6e:f1:77:09,-92.2993392944336,-62.43928146362305,-168.37515258789062,0.09762643277645111,-0.14526677131652832,0.1883687973022461
120012523049.79942,d4:ca:6e:f1:77:09,-92.32551574707031,-62.496437072753906,-168.2951202392578,0.1167009174823761,0.05986962094902992,0.1793689727783203
120012539720.13283,d4:ca:6e:f1:77:09,-92.34867095947266,-62.63041687011719,-168.24163818359375,0.12318726629018784,-0.06452349573373795,0.2012176513671875
120012556390.46623,d4:ca:6e:f1:77:09,-92.3651123046875,-62.85078811645508,-168.2108154296875,0.0939854085445404,-0.044119447469711304,0.1901378631591797
120012573060.79964,d4:ca:6e:f1:77:09,-92.2850570678711,-63.186824798583984,-168.31036376953125,0.015054156072437763,0.028321102261543274,0.0698709487915039
120012589731.13304,d4:ca:6e:f1:77:09,-92.3108901977539,-63.636566162109375,-168.30433654785156,0.2326427847146988,-0.3443237245082855,0.16783809661865234
120012606401.46645,d4:ca:6e:f1:77:09,-92.05595397949219,-64.2314224243164,-168.60992431640625,-0.12659785151481628,-0.1783628910779953,-0.02237987518310547
120012623071.79985,d4:ca:6e:f1:77:09,-92.14450073242188,-64.94451141357422,-168.57090759277344,0.6622934937477112,-0.3096030056476593,0.16940021514892578
120012639742.13326,d4:ca:6e:f1:77:09,-91.92993927001953,-65.74065399169922,-168.82901000976562,-0.4219149053096771,0.15658167004585266,0.08768939971923828
120012656412.46666,d4:ca:6e:f1:77:09,-92.12117004394531,-66.61638641357422,-168.74771118164062,0.018937358632683754,-0.1465304046869278,0.15095233917236328
120012673082.80006,d4:ca:6e:f1:77:09,-92.32653045654297,-67.55741882324219,-168.7228240966797,0.17104965448379517,-0.1222580075263977,0.14505386352539062
120012689753.13347,d4:ca:6e:f1:77:09,-92.7248306274414,-68.552490234375,-168.53366088867188,0.19741234183311462,0.21033194661140442,0.25325965881347656
120012706423.46687,d4:ca:6e:f1:77:09,-93.31607818603516,-69.56765747070312,-168.12635803222656,-0.41846609115600586,-0.14146548509597778,0.03998374938964844
120012723093.80028,d4:ca:6e:f1:77:09,-93.82034301757812,-70.61034393310547,-167.82318115234375,0.3456871509552002,-0.23534539341926575,0.13686561584472656
120012739764.13368,d4:ca:6e:f1:77:09,-95.31304168701172,-71.65930938720703,-166.53939819335938,0.26018092036247253,0.0474662184715271,0.28247833251953125
120012756434.46709,d4:ca:6e:f1:77:09,-96.36388397216797,-72.7147445678711,-165.6393280029297,-0.009643913246691227,-0.11350502073764801,0.07317352294921875
120012773104.80049,d4:ca:6e:f1:77:09,-98.19972229003906,-73.74541473388672,-163.92144775390625,-0.17854081094264984,-0.03990019112825394,0.13782787322998047
120012789775.1339,d4:ca:6e:f1:77:09,-100.55150604248047,-74.78616333007812,-161.7764892578125,-0.5439125299453735,0.2612510025501251,-0.011333465576171875
120012806445.4673,d4:ca:6e:f1:77:09,-102.94950866699219,-75.8239974975586,-159.5714874267578,0.5573163628578186,-0.21145577728748322,0.33260536193847656
120012823115.8007,d4:ca:6e:f1:77:09,-104.9458999633789,-76.88363647460938,-157.74998474121094,-0.3314484655857086,0.34858208894729614,0.18094253540039062
120012839786.13411,d4:ca:6e:f1:77:09,-107.1067886352539,-77.9367904663086,-155.78900146484375,-0.3064194917678833,0.050099313259124756,0.14557838439941406
120012856456.46751,d4:ca:6e:f1:77:09,-109.82778930664062,-78.9618148803711,-153.28970336914062,-0.041486017405986786,0.04457228258252144,0.21712112426757812
120012873126.80092,d4:ca:6e:f1:77:09,-113.5907974243164,-79.9140625,-149.7582244873047,-0.394779771566391,0.4742848873138428,0.2213582992553711
120012889797.13432,d4:ca:6e:f1:77:09,-117.43170166015625,-80.8637466430664,-146.1379852294922,0.17503321170806885,-0.3806101679801941,0.18859386444091797
120012906467.46773,d4:ca:6e:f1:77:09,-122.0597152709961,-81.74526977539062,-141.7195587158203,-0.7778974771499634,0.42068177461624146,0.11518287658691406
120012923137.80113,d4:ca:6e:f1:77:09,-127.81737518310547,-82.51043701171875,-136.1790313720703,0.35880333185195923,-0.297341525554657,0.42232227325439453
120012939808.13454,d4:ca:6e:f1:77:09,-133.7122039794922,-83.20886993408203,-130.47190856933594,-0.8633241653442383,0.8158122301101685,0.45937347412109375
120012956478.46794,d4:ca:6e:f1:77:09,-139.39483642578125,-83.82124328613281,-124.96109771728516,-0.06414039433002472,-0.2710512578487396,0.5356693267822266
120012973148.80135,d4:ca:6e:f1:77:09,-144.10569763183594,-84.22376251220703,-120.36605834960938,-0.04554523527622223,0.12881989777088165,1.1769657135009766
120012989819.13475,d4:ca:6e:f1:77:09,-147.01881408691406,-84.38689422607422,-117.45181274414062,-0.8157815933227539,0.41089415550231934,1.045858383178711
120013006489.46815,d4:ca:6e:f1:77:09,-147.7620849609375,-84.4853744506836,-116.6990966796875,-0.22040031850337982,-0.03762281686067581,0.6860885620117188
120013023159.80156,d4:ca:6e:f1:77:09,-148.08648681640625,-84.49341583251953,-116.34912872314453,-0.2370397299528122,0.011522316373884678,0.32646846771240234
120013039830.13496,d4:ca:6e:f1:77:09,-148.5304412841797,-84.494873046875,-115.88703155517578,-0.2050396054983139,-0.13175775110721588,0.12444400787353516
120013056500.46837,d4:ca:6e:f1:77:09,-149.1826934814453,-84.47351837158203,-115.19953918457031,-0.20852597057819366,0.12875507771968842,0.22846603393554688
120013073170.80177,d4:ca:6e:f1:77:09,-149.76663208007812,-84.45111846923828,-114.55018615722656,-0.14301498234272003,0.14063145220279694,0.26453208923339844
120013089841.13518,d4:ca:6e:f1:77:09,-150.2367706298828,-84.44988250732422,-114.00183868408203,-0.10191028565168381,0.1666465699672699,0.2003335952758789
120013106511.46858,d4:ca:6e:f1:77:09,-150.5099639892578,-84.48843383789062,-113.6574478149414,-0.06215828284621239,0.1292208880186081,0.2630014419555664
120013123181.80199,d4:ca:6e:f1:77:09,-150.62338256835938,-84.54109954833984,-113.478515625,-0.07977691292762756,0.06799398362636566,0.29938220977783203
120013139852.13539,d4:ca:6e:f1:77:09,-150.5524139404297,-84.5947036743164,-113.48994445800781,-0.0785413384437561,0.0672595202922821,0.2587318420410156
120013156522.4688,d4:ca:6e:f1:77:09,-150.44076538085938,-84.6405029296875,-113.54053497314453,-0.06119896471500397,0.047037407755851746,0.25626277923583984
120013173082.2,d4:ca:6e:f1:77:09,-150.26881408691406,-84.6826400756836,-113.65267944335938,-0.12019409239292145,0.030838752165436745,0.2736997604370117
120013189752.5334,d4:ca:6e:f1:77:09,-150.0547332763672,-84.70906066894531,-113.81271362304688,-0.1578964740037918,0.020502842962741852,0.2579793930053711
120013206422.8668,d4:ca:6e:f1:77:09,-149.563720703125,-84.7509994506836,-114.26643371582031,-0.17606450617313385,0.14020095765590668,0.29682254791259766
120013223093.20021,d4:ca:6e:f1:77:09,-148.6429443359375,-84.828125,-115.16474914550781,-0.14735226333141327,0.13731540739536285,0.28469181060791016
120013239763.53362,d4:ca:6e:f1:77:09,-147.2979278564453,-84.90161895751953,-116.49002838134766,-0.20524591207504272,0.06682635098695755,0.37917327880859375
120013256433.86702,d4:ca:6e:f1:77:09,-145.25119018554688,-84.93136596679688,-118.52169036865234,-0.21821056306362152,-0.054314542561769485,0.4878511428833008
120013273104.20042,d4:ca:6e:f1:77:09,-142.5504608154297,-84.84611511230469,-121.20002746582031,-0.06884534657001495,-0.09448272734880447,0.6320323944091797
120013289774.53383,d4:ca:6e:f1:77:09,-137.76210021972656,-84.59064483642578,-125.9378433227539,-0.36727043986320496,0.18855395913124084,1.1541872024536133
120013306444.86723,d4:ca:6e:f1:77:09,-131.22012329101562,-84.07017517089844,-132.38754272460938,-0.13011471927165985,0.027855748310685158,1.0833168029785156
120013323115.20064,d4:ca:6e:f1:77:09,-126.6294937133789,-83.06658935546875,-136.93896484375,-0.7676706910133362,0.4416537880897522,0.7818374633789062
120013339785.53404,d4:ca:6e:f1:77:09,-119.41311645507812,-82.11957550048828,-144.10519409179688,0.26261231303215027,-0.21125908195972443,0.6379508972167969
120013356455.86745,d4:ca:6e:f1:77:09,-114.67652893066406,-80.88557434082031,-148.79759216308594,-0.4004055857658386,0.23795278370380402,0.6073246002197266
120013373126.20085,d4:ca:6e:f1:77:09,-109.92100524902344,-79.55533599853516,-153.4827423095703,-0.38577666878700256,-0.2535012364387512,0.1447134017944336
120013389796.53426,d4:ca:6e:f1:77:09,-106.60918426513672,-78.09124755859375,-156.7151336669922,0.053445301949977875,0.2750999629497528,0.2984151840209961
120013406466.86766,d4:ca:6e:f1:77:09,-104.08688354492188,-76.58158111572266,-159.13658142089844,-0.3168646991252899,-0.06598057597875595,0.05473041534423828
120013423137.20107,d4:ca:6e:f1:77:09,-102.05266571044922,-75.07555389404297,-161.1083526611328,-0.020906060934066772,0.35913994908332825,0.08108043670654297
120013439807.53447,d4:ca:6e:f1:77:09,-100.05838775634766,-73.60501861572266,-163.03927612304688,-0.14554470777511597,-0.08224863559007645,0.04464435577392578
120013456477.86787,d4:ca:6e:f1:77:09,-98.84275817871094,-72.17922973632812,-164.1841278076172,0.05491244047880173,-0.08561373502016068,0.02984333038330078
120013472929.7,d4:ca:6e:f1:77:09,-97.45066833496094,-70.85660552978516,-165.47915649414062,-0.126568004488945,-0.07842767983675003,-0.1102151870727539
120013489600.0334,d4:ca:6e:f1:77:09,-97.31538391113281,-69.5869140625,-165.5227813720703,-0.715972363948822,0.33068037033081055,0.021398544311523438
120013506270.3668,d4:ca:6e:f1:77:09,-96.54938507080078,-68.42046356201172,-166.26724243164062,0.18318496644496918,-0.016621988266706467,-0.12914657592773438
120013522940.70021,d4:ca:6e:f1:77:09,-95.95838165283203,-67.40116119384766,-166.7733612060547,-0.22413231432437897,-0.025117268785834312,0.0767526626586914
120013539611.03362,d4:ca:6e:f1:77:09,-95.48577880859375,-66.50700378417969,-167.15301513671875,0.11339639127254486,-0.38605359196662903,0.01858806610107422
120013556281.36702,d4:ca:6e:f1:77:09,-95.11146545410156,-65.77813720703125,-167.42428588867188,-0.11832351237535477,0.0795450210571289,-0.050002098083496094
120013572951.70042,d4:ca:6e:f1:77:09,-94.82433319091797,-65.19206237792969,-167.60861206054688,0.15466168522834778,0.01789165288209915,0.011308670043945312
120013589622.03383,d4:ca:6e:f1:77:09,-94.5833969116211,-64.7484359741211,-167.74774169921875,-0.011381726711988449,0.012004769407212734,0.04058551788330078
120013606292.36723,d4:ca:6e:f1:77:09,-94.38182830810547,-64.45599365234375,-167.8694305419922,0.30580127239227295,-0.055335547775030136,0.0312347412109375
120013622962.70064,d4:ca:6e:f1:77:09,-94.29443359375,-64.29902648925781,-167.8765106201172,0.1378161907196045,0.07071391493082047,0.09451007843017578
120013639633.03404,d4:ca:6e:f1:77:09,-94.22610473632812,-64.30826568603516,-167.8920135498047,0.30549436807632446,-0.015485536307096481,-0.0018720626831054688
120013656303.36745,d4:ca:6e:f1:77:09,-94.163818359375,-64.48728942871094,-167.8949432373047,0.3696550130844116,-0.13445745408535004,0.09736061096191406
120013672973.70085,d4:ca:6e:f1:77:09,-93.8755111694336,-64.83068084716797,-168.16578674316406,0.021231718361377716,0.06270689517259598,-0.22454833984375
120013689644.03426,d4:ca:6e:f1:77:09,-93.66496276855469,-65.31885528564453,-168.3538055419922,0.46822118759155273,-0.24464185535907745,0.2844200134277344
120013706314.36766,d4:ca:6e:f1:77:09,-93.40359497070312,-65.94847869873047,-168.64463806152344,0.3172863721847534,0.10961108654737473,0.04136848449707031
120013722984.70107,d4:ca:6e:f1:77:09,-93.53083801269531,-66.732666015625,-168.5760498046875,0.12912119925022125,-0.022004403173923492,-0.1212167739868164
120013739655.03447,d4:ca:6e:f1:77:09,-93.58893585205078,-67.69682312011719,-168.62017822265625,0.10036972165107727,0.1569504588842392,0.0036802291870117188
120013756325.36787,d4:ca:6e:f1:77:09,-93.57877349853516,-68.8392105102539,-168.74851989746094,0.28038427233695984,0.039966799318790436,-0.1728954315185547
120013772995.70128,d4:ca:6e:f1:77:09,-93.74626159667969,-70.16561126708984,-168.71768188476562,0.15787792205810547,-0.026194488629698753,-0.1672220230102539
120013789666.03468,d4:ca:6e:f1:77:09,-94.54011535644531,-71.64437866210938,-168.08587646484375,0.2994237542152405,0.16138865053653717,0.09576034545898438
120013806336.36809,d4:ca:6e:f1:77:09,-95.3130111694336,-73.24745178222656,-167.4942626953125,0.13203424215316772,-0.24862441420555115,-0.45042896270751953
120013823006.70149,d4:ca:6e:f1:77:09,-96.57112884521484,-74.93309020996094,-166.40765380859375,0.09888436645269394,-0.12282059341669083,0.02779865264892578
120013839677.0349,d4:ca:6e:f1:77:09,-98.1579360961914,-76.67059326171875,-165.02523803710938,0.13125574588775635,0.2865261733531952,0.11714553833007812
120013856347.3683,d4:ca:6e:f1:77:09,-99.928955078125,-78.3735580444336,-163.49021911621094,-0.10482735186815262,-0.2075134515762329,0.3032207489013672
120013873017.7017,d4:ca:6e:f1:77:09,-101.90361022949219,-79.97908782958984,-161.7453155517578,-0.12138161808252335,-0.060630571097135544,0.4889192581176758
120013889688.03511,d4:ca:6e:f1:77:09,-103.95315551757812,-81.43948364257812,-159.89691162109375,-0.3805486857891083,0.014244928024709225,0.4169921875
120013906358.36852,d4:ca:6e:f1:77:09,-107.59149169921875,-82.70537567138672,-156.4682159423828,-0.08824783563613892,0.3654416799545288,0.6416120529174805
120013923028.70192,d4:ca:6e:f1:77:09,-110.49334716796875,-83.8631362915039,-153.74920654296875,-0.5253278613090515,0.10864629596471786,0.4445934295654297
120013939699.03532,d4:ca:6e:f1:77:09,-114.1126937866211,-84.86187744140625,-150.30030822753906,-0.0600297674536705,0.45484015345573425,0.6799898147583008
120013956369.36873,d4:ca:6e:f1:77:09,-116.57743835449219,-85.7479476928711,-147.96922302246094,-0.39671024680137634,0.19335614144802094,0.6002168655395508
120013973039.70213,d4:ca:6e:f1:77:09,-119.32586669921875,-86.49279022216797,-145.32598876953125,0.019097616896033287,0.2100650817155838,0.6631345748901367
120013989710.03554,d4:ca:6e:f1:77:09,-121.85765075683594,-86.87789154052734,-142.84327697753906,-0.5754781365394592,0.42662477493286133,1.386946678161621
120014006380.36894,d4:ca:6e:f1:77:09,-121.82450103759766,-86.97923278808594,-142.87435913085938,0.16002947092056274,0.24574624001979828,1.0753288269042969
120014023050.70235,d4:ca:6e:f1:77:09,-127.31068420410156,-86.79624938964844,-137.41600036621094,0.060704778879880905,-0.924450695514679,0.010379791259765625
120014039721.03575,d4:ca:6e:f1:77:09,-135.1324005126953,-86.4581298828125,-129.57623291015625,-0.120015949010849,-0.42895957827568054,0.12751007080078125
120014056391.36916,d4:ca:6e:f1:77:09,-141.90081787109375,-86.03939056396484,-122.79188537597656,-0.6447696089744568,0.2071249932050705,0.3908119201660156
120014073061.70256,d4:ca:6e:f1:77:09,-146.9587860107422,-85.56712341308594,-117.68988800048828,-0.612625777721405,1.1099056005477905,0.15227127075195312
120014089732.03596,d4:ca:6e:f1:77:09,-152.45358276367188,-85.11946105957031,-112.26966857910156,0.10634701699018478,1.3377034664154053,-0.49924564361572266
120014106402.36937,d4:ca:6e:f1:77:09,-160.06373596191406,-84.89707946777344,-104.79463958740234,0.1328820288181305,1.229710340499878,-1.0261621475219727
120014123072.70277,d4:ca:6e:f1:77:09,-160.09486389160156,-85.81380462646484,-104.9675521850586,-2.5192580223083496,1.7256152629852295,2.0378618240356445
120014139743.03618,d4:ca:6e:f1:77:09,-159.2166290283203,-85.95204162597656,-106.31151580810547,0.12206534296274185,-0.12512880563735962,0.24884605407714844
120014156413.36958,d4:ca:6e:f1:77:09,-163.7926025390625,-84.82247924804688,-102.41644287109375,0.21672911942005157,0.05013261362910271,0.34446048736572266
120014173083.70299,d4:ca:6e:f1:77:09,-165.36109924316406,-84.18675231933594,-101.40982055664062,0.5023466944694519,-0.2440497726202011,-0.03837108612060547
120014189754.03639,d4:ca:6e:f1:77:09,-166.82955932617188,-83.5126953125,-100.33202362060547,0.24941587448120117,-0.5980659127235413,0.7952108383178711
120014206424.3698,d4:ca:6e:f1:77:09,-167.4395751953125,-83.17792510986328,-99.91046905517578,0.3092809021472931,-1.871338963508606,-0.35573673248291016
120014223094.7032,d4:ca:6e:f1:77:09,-167.79507446289062,-82.99935150146484,-99.55776977539062,-0.14118419587612152,-0.4055050313472748,0.7175798416137695
120014239765.0366,d4:ca:6e:f1:77:09,-167.43258666992188,-83.2105712890625,-99.84465026855469,0.2768518626689911,-0.20427362620830536,0.2946634292602539
120014256435.37001,d4:ca:6e:f1:77:09,-166.78770446777344,-83.57331085205078,-100.35618591308594,0.3975142240524292,-0.00867789052426815,0.22217559814453125
120014273105.70341,d4:ca:6e:f1:77:09,-166.3430633544922,-83.81135559082031,-100.6839599609375,0.2507229745388031,0.4095919728279114,0.21940994262695312
120014289776.03682,d4:ca:6e:f1:77:09,-165.9170379638672,-84.02066802978516,-101.02986145019531,0.27384451031684875,0.5235835909843445,0.24448490142822266
120014306446.37022,d4:ca:6e:f1:77:09,-165.82061767578125,-84.06155395507812,-101.00804901123047,-0.05980781838297844,-1.3183375597000122,-0.03560161590576172
120014323116.70363,d4:ca:6e:f1:77:09,-165.62246704101562,-84.19886779785156,-101.04585266113281,-0.276237428188324,-0.050423406064510345,0.6675043106079102
120014339787.03703,d4:ca:6e:f1:77:09,-165.37930297851562,-84.3395767211914,-101.05292510986328,0.08997804671525955,-0.9332041144371033,0.09924030303955078
120014356457.37044,d4:ca:6e:f1:77:09,-164.5911865234375,-84.66002655029297,-101.4853515625,0.03841360658407211,-0.7722377181053162,0.3420543670654297
120014373127.70384,d4:ca:6e:f1:77:09,-162.833251953125,-85.28807067871094,-102.74028015136719,0.18001577258110046,0.6198854446411133,0.3446521759033203
120014389798.03725,d4:ca:6e:f1:77:09,-160.44496154785156,-85.89849853515625,-104.71769714355469,-0.208011656999588,1.2840584516525269,0.036502838134765625
120014406468.37065,d4:ca:6e:f1:77:09,-156.7636260986328,-86.53536224365234,-108.31936645507812,-0.6219727396965027,3.8358302116394043,0.2388772964477539
120014423138.70406,d4:ca:6e:f1:77:09,-149.7399444580078,-87.29586029052734,-115.44078826904297,-0.0744338408112526,-0.2163790911436081,0.12048530578613281
120014439809.03746,d4:ca:6e:f1:77:09,-145.66363525390625,-87.57925415039062,-119.7343521118164,-0.08719731867313385,0.3661110997200012,0.10502815246582031
120014456479.37086,d4:ca:6e:f1:77:09,-142.3885498046875,-87.75789642333984,-123.25390625,0.41470885276794434,-0.233170285820961,0.28156185150146484
120014473149.70427,d4:ca:6e:f1:77:09,-137.1571044921875,-87.9928970336914,-128.58302307128906,0.03133562207221985,-1.205502986907959,0.3390693664550781
120014489820.03767,d4:ca:6e:f1:77:09,-133.92236328125,-88.11031341552734,-131.76974487304688,0.16879631578922272,-0.7678671479225159,0.2130718231201172
120014506490.37108,d4:ca:6e:f1:77:09,-130.33914184570312,-88.23143005371094,-135.16893005371094,0.007187282666563988,-0.23518681526184082,0.2803783416748047
120014523160.70448,d4:ca:6e:f1:77:09,-127.13528442382812,-88.3201904296875,-138.24591064453125,-0.5182313323020935,0.7730425596237183,0.24925708770751953
120014539831.03789,d4:ca:6e:f1:77:09,-120.00908660888672,-88.46736907958984,-145.2533416748047,-0.20870007574558258,-0.8237223625183105,0.22031784057617188
120014556501.37129,d4:ca:6e:f1:77:09,-114.17152404785156,-88.55477142333984,-150.90419006347656,-0.29684263467788696,-0.7071402072906494,0.4293222427368164
120014573171.7047,d4:ca:6e:f1:77:09,-99.38516998291016,-88.66969299316406,-165.4528350830078,-1.120051383972168,-0.018037943169474602,-0.00505828857421875
120014589842.0381,d4:ca:6e:f1:77:09,-79.27462005615234,-88.67854309082031,174.7403564453125,1.2252939939498901,0.4333379864692688,0.24016475677490234
120014606512.3715,d4:ca:6e:f1:77:09,-59.5291633605957,-88.51404571533203,155.2329559326172,-0.5335718989372253,1.3517252206802368,0.22628021240234375
120014623182.70491,d4:ca:6e:f1:77:09,-49.550540924072266,-88.32042694091797,145.35400390625,0.5758303999900818,0.9843765497207642,0.3511209487915039
120014639853.03831,d4:ca:6e:f1:77:09,-42.025089263916016,-88.08848571777344,137.89569091796875,-0.4201100468635559,0.003998870495706797,0.141265869140625
120014656523.37172,d4:ca:6e:f1:77:09,-37.12928009033203,-87.8680648803711,133.05796813964844,0.3316628336906433,0.21283529698848724,0.3844022750854492
120014673193.70512,d4:ca:6e:f1:77:09,-33.719764709472656,-87.67375946044922,129.6797332763672,-0.03581593930721283,0.012823161669075489,0.20195579528808594
120014689864.03853,d4:ca:6e:f1:77:09,-32.22870635986328,-87.58039093017578,128.2047576904297,-0.006440972909331322,0.313137412071228,0.23804664611816406
120014706534.37193,d4:ca:6e:f1:77:09,-31.41767120361328,-87.527099609375,127.39253997802734,0.014913007616996765,0.00568058155477047,0.24077701568603516
120014723204.70534,d4:ca:6e:f1:77:09,-31.528146743774414,-87.53788757324219,127.46381378173828,-0.08029613643884659,0.1984090954065323,0.2393636703491211
120014739875.03874,d4:ca:6e:f1:77:09,-31.148853302001953,-87.51139831542969,127.01378631591797,0.04256558418273926,0.18863241374492645,0.24834156036376953
120014756545.37215,d4:ca:6e:f1:77:09,-30.543066024780273,-87.47276306152344,126.34754180908203,0.26653584837913513,-0.23408645391464233,0.32042694091796875
120014773215.70555,d4:ca:6e:f1:77:09,-30.0987548828125,-87.44488525390625,125.87970733642578,0.11495204269886017,-0.36289674043655396,0.2035350799560547
120014789886.03896,d4:ca:6e:f1:77:09,-30.219045639038086,-87.4627914428711,126.00309753417969,0.09095166623592377,-0.09595120698213577,0.23461055755615234
120014806556.37236,d4:ca:6e:f1:77:09,-30.47356605529785,-87.49002075195312,126.2608413696289,0.02050016075372696,0.025980252772569656,0.26836204528808594
120014823183.799,d4:ca:6e:f1:77:09,-30.817943572998047,-87.52804565429688,126.6067123413086,-0.03549765795469284,0.22994118928909302,0.23691463470458984
120014839854.1324,d4:ca:6e:f1:77:09,-31.461702346801758,-87.58792114257812,127.24623107910156,0.017946302890777588,0.010739574208855629,0.2436370849609375
120014856524.4658,d4:ca:6e:f1:77:09,-32.22027587890625,-87.64665222167969,127.97957611083984,-0.09718522429466248,0.3525112271308899,0.2859468460083008
120014873194.79921,d4:ca:6e:f1:77:09,-33.178401947021484,-87.69921875,128.94183349609375,-0.08968748152256012,-0.16311684250831604,0.23331069946289062
120014889865.13261,d4:ca:6e:f1:77:09,-33.390625,-87.7136459350586,129.16293334960938,-0.09981843084096909,0.1946587711572647,0.24971294403076172
120014906535.46602,d4:ca:6e:f1:77:09,-33.10833740234375,-87.69913482666016,128.88267517089844,-0.06308072060346603,0.2446630895137787,0.26778125762939453
120014923205.79942,d4:ca:6e:f1:77:09,-32.092735290527344,-87.65056610107422,127.8364028930664,-0.07053644210100174,0.5328879952430725,0.23352336883544922
120014939876.13283,d4:ca:6e:f1:77:09,-31.725170135498047,-87.63619995117188,127.3553237915039,-0.5823149681091309,0.8717043399810791,0.18572521209716797
120014956546.46623,d4:ca:6e:f1:77:09,-30.699405670166016,-87.5634536743164,126.13873291015625,0.1402130275964737,0.9254576563835144,0.2438364028930664
120014972944.5,d4:ca:6e:f1:77:09,-30.329694747924805,-87.52963256835938,125.52678680419922,-0.33137115836143494,0.3334645628929138,0.21117877960205078
120014989614.8334,d4:ca:6e:f1:77:09,-29.85836410522461,-87.48533630371094,124.82087707519531,0.13726288080215454,0.03964851796627045,0.2779979705810547
120015006285.16681,d4:ca:6e:f1:77:09,-30.048120498657227,-87.49681091308594,124.82582092285156,0.06056351587176323,-0.5158864259719849,0.24280357360839844
120015022955.50021,d4:ca:6e:f1:77:09,-29.905866622924805,-87.48627471923828,124.5800552368164,0.14342737197875977,-0.74269038438797,0.29407215118408203
120015039625.83362,d4:ca:6e:f1:77:09,-30.05249786376953,-87.50299835205078,124.70829010009766,0.21146851778030396,-0.49787935614585876,0.2587099075317383
120015056296.16702,d4:ca:6e:f1:77:09,-30.485551834106445,-87.53836059570312,125.14521026611328,0.20027610659599304,-0.19217175245285034,0.21135711669921875
120015072966.50043,d4:ca:6e:f1:77:09,-31.47784996032715,-87.61099243164062,126.14794158935547,-0.0009528357186354697,0.4523799419403076,0.2800273895263672
120015089636.83383,d4:ca:6e:f1:77:09,-31.941556930541992,-87.64299774169922,126.6214370727539,0.04341716691851616,-0.08650018274784088,0.23090362548828125
120015106307.16724,d4:ca:6e:f1:77:09,-32.79887390136719,-87.7042465209961,127.48885345458984,0.01195324957370758,-0.028965715318918228,0.26035022735595703
120015122977.50064,d4:ca:6e:f1:77:09,-32.55472183227539,-87.7042465209961,127.3605728149414,0.05556241422891617,-0.6013989448547363,0.3028421401977539
120015139647.83405,d4:ca:6e:f1:77:09,-32.34705352783203,-87.70185852050781,127.31768035888672,-0.03853564336895943,0.11647595465183258,0.23220443725585938
120015156318.16745,d4:ca:6e:f1:77:09,-32.148380279541016,-87.70220184326172,127.27798461914062,0.06334178149700165,0.07448188960552216,0.2549858093261719
120015172988.50085,d4:ca:6e:f1:77:09,-31.653213500976562,-87.68658447265625,126.94918823242188,0.47945407032966614,0.18654502928256989,0.23664379119873047
120015189658.83426,d4:ca:6e:f1:77:09,-31.569503784179688,-87.69437408447266,127.03630065917969,0.14914125204086304,0.42570701241493225,0.25486278533935547
120015206329.16766,d4:ca:6e:f1:77:09,-31.55198097229004,-87.7023696899414,127.13407135009766,-0.0765078142285347,0.38246017694473267,0.2346210479736328
120015222999.50107,d4:ca:6e:f1:77:09,-31.548494338989258,-87.71176147460938,127.2491455078125,-0.1082766056060791,-0.18702781200408936,0.2089385986328125
120015239669.83447,d4:ca:6e:f1:77:09,-32.07118225097656,-87.74449920654297,127.86717987060547,-0.5539759397506714,0.18953630328178406,0.21584129333496094
120015256340.16788,d4:ca:6e:f1:77:09,-32.75469207763672,-87.79611206054688,128.60475158691406,-0.16812533140182495,0.9045953750610352,0.2660360336303711
120015273010.50128,d4:ca:6e:f1:77:09,-32.25459671020508,-87.78663635253906,128.1053924560547,-0.11017758399248123,0.1477380394935608,0.27583789825439453
120015289680.83469,d4:ca:6e:f1:77:09,-31.317766189575195,-87.75188446044922,127.14286804199219,-0.08460523933172226,0.3439265489578247,0.24937057495117188
120015306351.16809,d4:ca:6e:f1:77:09,-31.285036087036133,-87.75553894042969,127.10765075683594,0.04087984934449196,-0.09601982682943344,0.2339925765991211
120015323021.5015,d4:ca:6e:f1:77:09,-31.793027877807617,-87.7911376953125,127.62955474853516,0.08041750639677048,0.10181618481874466,0.30648136138916016
120015339691.8349,d4:ca:6e:f1:77:09,-32.875980377197266,-87.85752868652344,128.75384521484375,-0.3958602249622345,-1.4956727027893066,0.30877208709716797
120015356362.1683,d4:ca:6e:f1:77:09,-34.744686126708984,-87.96952819824219,130.89462280273438,-0.4735155403614044,-1.37981116771698,0.2624063491821289
120015373032.50171,d4:ca:6e:f1:77:09,-31.58127212524414,-87.81456756591797,128.14073181152344,0.650155246257782,1.3029191493988037,0.1000967025756836
120015389702.83511,d4:ca:6e:f1:77:09,-30.426300048828125,-87.75006103515625,127.10179138183594,0.12156947702169418,3.052278995513916,0.2856292724609375
120015406373.16852,d4:ca:6e:f1:77:09,-29.60973358154297,-87.69234466552734,126.25788879394531,0.13656462728977203,-0.31025832891464233,0.2858142852783203
120015422646.9,d4:ca:6e:f1:77:09,-30.19790267944336,-87.7093734741211,126.85725402832031,0.07033975422382355,-0.16512511670589447,0.2058725357055664
120015439317.2334,d4:ca:6e:f1:77:09,-31.176801681518555,-87.76699829101562,127.84458923339844,0.050169046968221664,-0.03851843625307083,0.23658370971679688
120015455987.5668,d4:ca:6e:f1:77:09,-33.00587844848633,-87.880126953125,129.67343139648438,-0.400155246257782,0.10877928882837296,0.21560382843017578
120015472657.9002,d4:ca:6e:f1:77:09,-35.508628845214844,-88.0135726928711,132.1497039794922,-0.413642019033432,0.23538082838058472,0.14214515686035156
120015489328.23361,d4:ca:6e:f1:77:09,-37.46245193481445,-88.11031341552734,134.0503387451172,-0.23541949689388275,0.16376861929893494,0.32257938385009766
120015505998.56702,d4:ca:6e:f1:77:09,-37.25260543823242,-88.10081481933594,133.75669860839844,-0.11754099279642105,0.32479584217071533,0.23256301879882812
120015522668.90042,d4:ca:6e:f1:77:09,-38.97455978393555,-88.16624450683594,135.39707946777344,0.9165244698524475,0.06396292895078659,0.3858604431152344
120015539339.23383,d4:ca:6e:f1:77:09,-45.14589309692383,-88.36649322509766,141.4846954345703,0.19875778257846832,0.49973607063293457,0.15446853637695312
120015556009.56723,d4:ca:6e:f1:77:09,-45.71649932861328,-88.37936401367188,142.0375213623047,0.027495669201016426,-0.1224491149187088,0.20637226104736328
120015572679.90063,d4:ca:6e:f1:77:09,-44.399192810058594,-88.34601593017578,140.72637939453125,-0.32472163438796997,0.35713592171669006,0.21218490600585938
120015589350.23404,d4:ca:6e:f1:77:09,-43.524009704589844,-88.32730865478516,139.85205078125,-0.2677001357078552,0.016872992739081383,0.22607421875
120015606020.56744,d4:ca:6e:f1:77:09,-44.18720245361328,-88.35920715332031,140.49679565429688,-0.4873921275138855,-0.10599051415920258,0.2172374725341797
120015622690.90085,d4:ca:6e:f1:77:09,-45.69544982910156,-88.42306518554688,141.97012329101562,0.16916733980178833,0.09792684018611908,0.3378305435180664
120015639361.23425,d4:ca:6e:f1:77:09,-48.06564712524414,-88.5066909790039,144.27182006835938,0.12023678421974182,0.39182984828948975,0.17936325073242188
120015656031.56766,d4:ca:6e:f1:77:09,-54.672996520996094,-88.64434051513672,150.77919006347656,0.2512191832065582,0.3669582009315491,0.12168121337890625
120015672701.90106,d4:ca:6e:f1:77:09,-59.26051330566406,-88.72405242919922,155.28221130371094,0.013813100755214691,-0.29170116782188416,0.3308753967285156
120015689372.23447,d4:ca:6e:f1:77:09,-64.02055358886719,-88.82596588134766,160.02127075195312,0.30214840173721313,0.04964558035135269,0.28989124298095703
120015706042.56787,d4:ca:6e:f1:77:09,-66.52351379394531,-88.88653564453125,162.5242919921875,0.15901382267475128,0.1192774623632431,0.22946739196777344
120015722712.90128,d4:ca:6e:f1:77:09,-64.01138305664062,-88.88373565673828,160.0139923095703,0.020911872386932373,0.4321850836277008,0.18384456634521484
120015739383.23468,d4:ca:6e:f1:77:09,-59.49113464355469,-88.8570556640625,155.49656677246094,0.06896559149026871,0.04335324466228485,0.32442283630371094
120015756053.56808,d4:ca:6e:f1:77:09,-55.81440734863281,-88.83517456054688,151.8277130126953,-0.13273227214813232,0.21932610869407654,0.2511320114135742
120015772723.90149,d4:ca:6e:f1:77:09,-52.6704216003418,-88.83014678955078,148.6952362060547,-0.15898744761943817,0.2439974695444107,0.2229461669921875
120015789394.2349,d4:ca:6e:f1:77:09,-49.17042541503906,-88.82081604003906,145.21640014648438,-0.2304941564798355,0.1831047236919403,0.28113842010498047
120015806064.5683,d4:ca:6e:f1:77:09,-45.792755126953125,-88.81436157226562,141.8848114013672,-0.13256195187568665,0.3240991532802582,0.23588085174560547
120015822734.9017,d4:ca:6e:f1:77:09,-44.195552825927734,-88.78807830810547,140.2594451904297,-0.09841364622116089,0.42130985856056213,0.17905902862548828
120015839405.2351,d4:ca:6e:f1:77:09,-43.28745651245117,-88.77922821044922,139.34201049804688,-0.024528535082936287,-0.5432460308074951,0.3394155502319336
120015856075.56851,d4:ca:6e:f1:77:09,-43.4703254699707,-88.82180786132812,139.5489959716797,-0.11460224539041519,0.08034083992242813,0.18554019927978516
120015872329.099,d4:ca:6e:f1:77:09,-46.240272521972656,-88.8918228149414,142.27056884765625,-0.0013647701125591993,0.07522730529308319,0.15560531616210938
120015888999.4324,d4:ca:6e:f1:77:09,-50.87040710449219,-88.97664642333984,146.87725830078125,0.16949300467967987,-0.34960466623306274,0.321014404296875
120015905669.76581,d4:ca:6e:f1:77:09,-52.916542053222656,-89.01166534423828,148.9649658203125,0.22254782915115356,-0.05941242724657059,0.2540750503540039
120015922340.09921,d4:ca:6e:f1:77:09,-55.84187698364258,-89.0527114868164,151.9301300048828,-0.0004099227662663907,0.2989689111709595,0.19644641876220703
120015939010.43262,d4:ca:6e:f1:77:09,-57.95626449584961,-89.07804107666016,154.0501708984375,0.043267637491226196,0.2643894553184509,0.2555522918701172
120015955680.76602,d4:ca:6e:f1:77:09,-57.5959587097168,-89.07888793945312,153.72215270996094,0.03641674295067787,0.07636096328496933,0.2680387496948242
120015972351.09943,d4:ca:6e:f1:77:09,-54.34966278076172,-89.01642608642578,150.5507049560547,0.2039855271577835,0.22331269085407257,0.28194713592529297
120015989021.43283,d4:ca:6e:f1:77:09,-52.72016143798828,-89.00613403320312,148.93289184570312,0.013059638440608978,0.47515055537223816,0.13142013549804688
120016005691.76624,d4:ca:6e:f1:77:09,-53.50273132324219,-89.02081298828125,149.70924377441406,0.09286270290613174,-0.16156254708766937,0.1927633285522461
120016022362.09964,d4:ca:6e:f1:77:09,-55.80833053588867,-89.05561065673828,152.01051330566406,0.03563891723752022,0.2678503394126892,0.3401679992675781
120016039032.43304,d4:ca:6e:f1:77:09,-59.18486022949219,-89.09086608886719,155.4041290283203,-0.15621812641620636,-0.11274194717407227,0.3324718475341797
120016055702.76645,d4:ca:6e:f1:77:09,-59.156070709228516,-89.09065246582031,155.39010620117188,-0.19548644125461578,0.2679862082004547,0.20871925354003906
120016072373.09985,d4:ca:6e:f1:77:09,-57.31369400024414,-89.06959533691406,153.54373168945312,-0.10854638367891312,0.47668853402137756,0.1519298553466797
120016089043.43326,d4:ca:6e:f1:77:09,-55.339725494384766,-89.05229187011719,151.52439880371094,0.14880330860614777,0.2404056191444397,0.0980978012084961
120016105713.76666,d4:ca:6e:f1:77:09,-57.1902961730957,-89.08165740966797,153.30775451660156,0.13542158901691437,-0.0631580576300621,0.4315042495727539
120016122384.10007,d4:ca:6e:f1:77:09,-56.10436248779297,-89.07804107666016,152.22808837890625,0.11334006488323212,-0.0016034819418564439,0.23987674713134766
120016139054.43347,d4:ca:6e:f1:77:09,-54.47472381591797,-89.0704345703125,150.60867309570312,0.010936712846159935,0.10221269726753235,0.099090576171875
120016155724.76688,d4:ca:6e:f1:77:09,-50.70193099975586,-89.02522277832031,146.8465576171875,-0.06282994151115417,0.4245905876159668,0.30510997772216797
120016172395.10028,d4:ca:6e:f1:77:09,-47.45470428466797,-88.98664093017578,143.6040802001953,0.01784818060696125,-0.0016477374592795968,0.36439037322998047
120016189065.43369,d4:ca:6e:f1:77:09,-45.04044723510742,-88.96372985839844,141.19625854492188,0.02192527987062931,0.02782512828707695,0.15034770965576172
120016205735.76709,d4:ca:6e:f1:77:09,-41.35879135131836,-88.8722152709961,137.5458526611328,0.004453272093087435,0.20452933013439178,0.2948179244995117
120016222406.1005,d4:ca:6e:f1:77:09,-37.83277893066406,-88.79180145263672,134.1299285888672,0.05681319534778595,-0.327606737613678,0.24764156341552734
120016239076.4339,d4:ca:6e:f1:77:09,-31.327468872070312,-88.55680847167969,127.68740844726562,1.6648081541061401,2.4633054733276367,-2.498225688934326
120016255746.7673,d4:ca:6e:f1:77:09,-34.2411994934082,-88.5513916015625,130.43017578125,-1.434872031211853,-1.6454087495803833,2.7742538452148438
120016272417.10071,d4:ca:6e:f1:77:09,-31.144832611083984,-88.37345886230469,127.0645751953125,0.021745910868048668,3.2984507083892822,0.09793281555175781
120016289087.43411,d4:ca:6e:f1:77:09,-27.787370681762695,-88.18016815185547,123.34915924072266,-0.10966148972511292,-0.01580437831580639,0.9565410614013672
120016305757.76752,d4:ca:6e:f1:77:09,-26.651443481445312,-88.09268951416016,122.0439682006836,-0.002339510014280677,-3.0965945720672607,-0.4838876724243164
120016322428.10092,d4:ca:6e:f1:77:09,-28.828672409057617,-88.2301025390625,124.22916412353516,-0.22225233912467957,0.2857242226600647,0.8260974884033203
120016339098.43433,d4:ca:6e:f1:77:09,-31.39110565185547,-88.36123657226562,126.7972183227539,-0.11027861386537552,-0.5665360689163208,0.12907791137695312
120016355768.76773,d4:ca:6e:f1:77:09,-33.54608154296875,-88.4522476196289,128.95567321777344,-0.04336509108543396,0.9600389003753662,0.20665359497070312
120016372439.10114,d4:ca:6e:f1:77:09,-32.19148635864258,-88.39307403564453,127.60480499267578,0.15008269250392914,0.36802971363067627,0.22590923309326172
120016389109.43454,d4:ca:6e:f1:77:09,-31.125858306884766,-88.3379898071289,126.54569244384766,0.15029548108577728,0.1391705721616745,0.2699546813964844
120016405779.76794,d4:ca:6e:f1:77:09,-30.044519424438477,-88.27830505371094,125.47080993652344,0.12453761696815491,0.04519946128129959,0.3633298873901367
120016422450.10135,d4:ca:6e:f1:77:09,-29.58245086669922,-88.24944305419922,125.0144271850586,0.03516954183578491,0.05536818131804466,0.05617046356201172
120016439120.43475,d4:ca:6e:f1:77:09,-29.63548469543457,-88.2503433227539,125.07487487792969,-0.056917574256658554,0.018151039257645607,0.2667713165283203
120016455790.76816,d4:ca:6e:f1:77:09,-29.947694778442383,-88.26494598388672,125.39044189453125,-0.12956956028938293,0.0634622573852539,0.3336210250854492
120016472461.10156,d4:ca:6e:f1:77:09,-32.15113067626953,-88.37321472167969,127.59526824951172,-0.10898067057132721,-0.08754309266805649,0.10507583618164062
120016489131.43497,d4:ca:6e:f1:77:09,-35.82981491088867,-88.51985168457031,131.27102661132812,-0.0734085813164711,-0.04976337030529976,0.31783390045166016
120016505801.76837,d4:ca:6e:f1:77:09,-38.9644889831543,-88.62030792236328,134.40061950683594,-0.03268832340836525,0.438151091337204,0.2164144515991211
120016522472.10178,d4:ca:6e:f1:77:09,-38.817440032958984,-88.61549377441406,134.2502899169922,0.01848854497075081,0.487579882144928,0.20984458923339844
120016539142.43518,d4:ca:6e:f1:77:09,-36.941627502441406,-88.55422973632812,132.3728485107422,0.07342400401830673,0.20597612857818604,0.2771015167236328
120016555812.76859,d4:ca:6e:f1:77:09,-34.75387191772461,-88.47389221191406,130.1876220703125,0.07085561752319336,0.16383901238441467,0.28949928283691406
120016572483.10199,d4:ca:6e:f1:77:09,-33.841796875,-88.4355239868164,129.2759552001953,0.07524183392524719,-0.17591944336891174,0.2145547866821289
120016589153.4354,d4:ca:6e:f1:77:09,-35.0189208984375,-88.48006439208984,130.4585723876953,0.03346570208668709,-0.1104113757610321,0.22424697875976562
120016605823.7688,d4:ca:6e:f1:77:09,-35.98544692993164,-88.51536560058594,131.42840576171875,-0.016601648181676865,0.2831949293613434,0.2357931137084961
120016622494.1022,d4:ca:6e:f1:77:09,-36.50969696044922,-88.53500366210938,131.95150756835938,-0.034921664744615555,0.2507491409778595,0.22795677185058594
120016639164.43561,d4:ca:6e:f1:77:09,-34.46711730957031,-88.46328735351562,129.90347290039062,-0.06559300422668457,0.2603825330734253,0.2573881149291992
120016655834.76901,d4:ca:6e:f1:77:09,-33.15047073364258,-88.40984344482422,128.5873260498047,-0.04800119623541832,0.10273303836584091,0.21998882293701172
120016672505.10242,d4:ca:6e:f1:77:09,-31.729312896728516,-88.34637451171875,127.16709899902344,-0.01806945726275444,0.13704562187194824,0.2531156539916992
120016689175.43582,d4:ca:6e:f1:77:09,-30.486820220947266,-88.28765106201172,125.92509460449219,0.04634451866149902,0.0742659792304039,0.24139118194580078
120016705845.76923,d4:ca:6e:f1:77:09,-29.802209854125977,-88.25291442871094,125.24225616455078,0.04660267382860184,0.038861751556396484,0.2579345703125
120016722516.10263,d4:ca:6e:f1:77:09,-29.932876586914062,-88.2608871459961,125.37474822998047,0.02560385689139366,0.020265473052859306,0.22284317016601562
120016739186.43604,d4:ca:6e:f1:77:09,-29.916290283203125,-88.26178741455078,125.36259460449219,0.0043395040556788445,0.1712893843650818,0.19930362701416016
120016755856.76944,d4:ca:6e:f1:77:09,-30.276958465576172,-88.28240203857422,125.72710418701172,-0.02304619736969471,0.04680093005299568,0.2819480895996094
120016772527.10284,d4:ca:6e:f1:77:09,-30.311023712158203,-88.28433990478516,125.76383972167969,-0.05120279639959335,0.18586108088493347,0.24596309661865234
120016789197.43625,d4:ca:6e:f1:77:09,-30.365327835083008,-88.2881088256836,125.82015991210938,-0.027989856898784637,0.1217191219329834,0.21860313415527344
120016805867.76965,d4:ca:6e:f1:77:09,-30.79340362548828,-88.3102035522461,126.25069427490234,-0.005716120358556509,0.025023169815540314,0.26584625244140625
120016822538.10306,d4:ca:6e:f1:77:09,-31.519540786743164,-88.34577941894531,126.97830200195312,0.021932655945420265,0.05369563400745392,0.2667865753173828
120016839208.43646,d4:ca:6e:f1:77:09,-32.25212860107422,-88.38347625732422,127.71092224121094,0.03991740196943283,0.12243682146072388,0.1657571792602539
120016855878.76987,d4:ca:6e:f1:77:09,-34.04966735839844,-88.45820617675781,129.51063537597656,0.02873750776052475,0.05927697569131851,0.31194210052490234
120016872549.10327,d4:ca:6e:f1:77:09,-35.815189361572266,-88.52448272705078,131.27964782714844,-0.014874116517603397,0.1473180651664734,0.2916841506958008
120016889219.43668,d4:ca:6e:f1:77:09,-36.64552307128906,-88.5528793334961,132.1118927001953,-0.03312953561544418,0.22956456243991852,0.1721630096435547
120016905889.77008,d4:ca:6e:f1:77:09,-37.505653381347656,-88.58087158203125,132.97195434570312,-0.0332459881901741,0.030979342758655548,0.2479114532470703
120016922560.10349,d4:ca:6e:f1:77:09,-38.618812561035156,-88.61634063720703,134.08642578125,-0.03573748469352722,0.17162911593914032,0.28177547454833984
120016939230.43689,d4:ca:6e:f1:77:09,-38.74993133544922,-88.62200927734375,134.21897888183594,-0.020369630306959152,0.28434738516807556,0.19868850708007812
120016955900.7703,d4:ca:6e:f1:77:09,-37.28074264526367,-88.57811737060547,132.751953125,0.01399727538228035,0.19266705214977264,0.26122283935546875
120016972571.1037,d4:ca:6e:f1:77:09,-36.16094970703125,-88.5398178100586,131.63624572753906,0.015759898349642754,0.08112850040197372,0.267059326171875
120016989241.4371,d4:ca:6e:f1:77:09,-35.69303894042969,-88.52342224121094,131.17031860351562,0.016242239624261856,0.055228039622306824,0.21869277954101562
120017005911.77051,d4:ca:6e:f1:77:09,-35.51713180541992,-88.5185317993164,130.99795532226562,-0.003069503465667367,0.07143183797597885,0.2589874267578125
120017022582.10391,d4:ca:6e:f1:77:09,-35.749908447265625,-88.52860260009766,131.23385620117188,-0.012002198956906796,0.06100674346089363,0.26291561126708984
120017039252.43732,d4:ca:6e:f1:77:09,-36.94969940185547,-88.57097625732422,132.43463134765625,0.018337225541472435,0.037089962512254715,0.21246623992919922
120017055922.77072,d4:ca:6e:f1:77:09,-37.65970230102539,-88.59416961669922,133.14642333984375,-0.011286063119769096,0.30038219690322876,0.24635696411132812
120017072593.10413,d4:ca:6e:f1:77:09,-37.28396224975586,-88.58169555664062,132.7733154296875,-0.024525629356503487,0.18430431187152863,0.2515134811401367
120017089263.43753,d4:ca:6e:f1:77:09,-36.21166229248047,-88.54612731933594,131.70193481445312,-0.019997257739305496,0.23207350075244904,0.23195934295654297
120017105933.77094,d4:ca:6e:f1:77:09,-34.79244613647461,-88.49597930908203,130.28358459472656,-0.019504187628626823,0.0625813901424408,0.24817466735839844
120017122604.10434,d4:ca:6e:f1:77:09,-34.1695442199707,-88.470947265625,129.6636962890625,-0.010354237630963326,0.039755355566740036,0.24566268920898438
120017139274.43774,d4:ca:6e:f1:77:09,-33.60383987426758,-88.45162200927734,129.0989990234375,0.007897607050836086,0.1210007518529892,0.22619152069091797
120017155944.77115,d4:ca:6e:f1:77:09,-32.97193908691406,-88.4302749633789,128.46815490722656,0.01205405406653881,0.24156855046749115,0.25102806091308594
120017172615.10455,d4:ca:6e:f1:77:09,-31.08561134338379,-88.34790802001953,126.56714630126953,0.019342364743351936,0.3464582562446594,0.23853683471679688
120017189285.43796,d4:ca:6e:f1:77:09,-26.365264892578125,-88.08521270751953,121.80022430419922,0.048965878784656525,0.10419168323278427,0.2152881622314453
120017205955.77136,d4:ca:6e:f1:77:09,-24.936569213867188,-87.98695373535156,120.36283874511719,0.01725698821246624,0.12151147425174713,0.29143524169921875
120017222626.10477,d4:ca:6e:f1:77:09,-23.268409729003906,-87.85497283935547,118.68438720703125,0.05892203748226166,-0.19847704470157623,0.29360294342041016
120017239296.43817,d4:ca:6e:f1:77:09,-22.706594467163086,-87.81089782714844,118.14197540283203,-0.019794531166553497,0.21212318539619446,0.19041919708251953
120017255966.77158,d4:ca:6e:f1:77:09,-23.200754165649414,-87.85533905029297,118.64209747314453,0.01370357908308506,0.24078580737113953,0.2729148864746094
120017272637.10498,d4:ca:6e:f1:77:09,-22.658056259155273,-87.80768585205078,118.10470581054688,-0.0077203609980642796,0.20648975670337677,0.24364089965820312
120017289307.43839,d4:ca:6e:f1:77:09,-21.412431716918945,-87.68404388427734,116.84059143066406,-0.036610305309295654,0.3219192326068878,0.28074169158935547
120017305977.77179,d4:ca:6e:f1:77:09,-21.87901496887207,-87.73445129394531,117.3173828125,0.036281518638134,0.0882214605808258,0.2087116241455078
120017322648.1052,d4:ca:6e:f1:77:09,-21.436220169067383,-87.69183349609375,116.87091827392578,0.005563684273511171,0.046131957322359085,0.2604255676269531
120017339318.4386,d4:ca:6e:f1:77:09,-21.241024017333984,-87.67106628417969,116.66221618652344,-0.10983225703239441,0.19180607795715332,0.2581672668457031
120017355988.772,d4:ca:6e:f1:77:09,-20.577280044555664,-87.60306549072266,115.99956512451172,0.11220506578683853,0.24258755147457123,0.26218318939208984
120017372465.3,d4:ca:6e:f1:77:09,-19.6713809967041,-87.5506362915039,115.05841827392578,-0.26343998312950134,-0.12250454723834991,0.00047588348388671875
120017389135.6334,d4:ca:6e:f1:77:09,-19.51624870300293,-87.53868103027344,114.90640258789062,0.3841906189918518,0.5105393528938293,0.24216365814208984
120017405805.96681,d4:ca:6e:f1:77:09,-19.49830436706543,-87.5382080078125,114.89010620117188,0.011289415881037712,0.20536035299301147,0.19263362884521484
120017422476.30022,d4:ca:6e:f1:77:09,-19.373558044433594,-87.52385711669922,114.76842498779297,0.07163143157958984,0.17521850764751434,0.24208545684814453
120017439146.63362,d4:ca:6e:f1:77:09,-19.6914005279541,-87.56105041503906,115.08980560302734,0.0450172983109951,-0.004255910404026508,0.22636127471923828
120017455816.96703,d4:ca:6e:f1:77:09,-19.76786231994629,-87.55655670166016,115.1695556640625,0.025912750512361526,0.2708995044231415,0.2544374465942383
120017472487.30043,d4:ca:6e:f1:77:09,-20.032703399658203,-87.58476257324219,115.43966674804688,0.06971659511327744,0.26431769132614136,0.23706722259521484
120017489157.63383,d4:ca:6e:f1:77:09,-20.149023056030273,-87.5991439819336,115.56053161621094,-0.0027552442625164986,-0.10296481847763062,0.24951457977294922
120017505827.96724,d4:ca:6e:f1:77:09,-20.187280654907227,-87.60690307617188,115.60188293457031,-0.08977196365594864,0.36658403277397156,0.2512378692626953
120017522498.30064,d4:ca:6e:f1:77:09,-20.08509063720703,-87.59515380859375,115.50103759765625,-0.03640109673142433,0.11927567422389984,0.25742435455322266
120017539168.63405,d4:ca:6e:f1:77:09,-19.930021286010742,-87.57675170898438,115.34768676757812,-0.007252101320773363,0.13845866918563843,0.2424602508544922
120017555838.96745,d4:ca:6e:f1:77:09,-19.248071670532227,-87.49986267089844,114.6659927368164,0.03216284513473511,0.30903011560440063,0.2661914825439453
120017572509.30086,d4:ca:6e:f1:77:09,-18.964765548706055,-87.46487426757812,114.38419342041016,0.05325956270098686,0.06852281093597412,0.23335552215576172
120017589179.63426,d4:ca:6e:f1:77:09,-18.838214874267578,-87.45286560058594,114.26068878173828,0.05601368844509125,0.20715805888175964,0.23414039611816406
120017605849.96767,d4:ca:6e:f1:77:09,-18.78768539428711,-87.44886779785156,114.21299743652344,0.036141373217105865,0.005855592433363199,0.26209545135498047
120017622520.30107,d4:ca:6e:f1:77:09,-18.63697052001953,-87.43204498291016,114.06715393066406,0.05294977128505707,0.15358290076255798,0.26150989532470703
120017639190.63448,d4:ca:6e:f1:77:09,-18.682714462280273,-87.43738555908203,114.11532592773438,0.006628053262829781,0.15049797296524048,0.2193126678466797
120017655860.96788,d4:ca:6e:f1:77:09,-18.71273422241211,-87.44656372070312,114.15003204345703,0.009135421365499496,0.12841199338436127,0.2493419647216797
120017672531.30128,d4:ca:6e:f1:77:09,-18.835458755493164,-87.46317291259766,114.2745590209961,0.012706488370895386,-0.08342687785625458,0.2680044174194336
120017689201.63469,d4:ca:6e:f1:77:09,-19.119110107421875,-87.49610137939453,114.56114196777344,-0.0611739307641983,0.6035938262939453,0.23240375518798828
120017705871.9681,d4:ca:6e:f1:77:09,-19.2213077545166,-87.51258087158203,114.66386413574219,0.04337179660797119,-0.006039320025593042,0.21178722381591797
120017722542.3015,d4:ca:6e:f1:77:09,-19.117877960205078,-87.50299835205078,114.5610122680664,0.02867760695517063,0.04866323992609978,0.2597494125366211
120017739212.6349,d4:ca:6e:f1:77:09,-19.26578140258789,-87.50362396240234,114.69346618652344,-0.4403480291366577,0.1700701117515564,0.19225788116455078
120017755882.9683,d4:ca:6e:f1:77:09,-19.46904754638672,-87.54696655273438,114.8983154296875,0.49014803767204285,0.22936229407787323,0.35419654846191406
120017772553.30171,d4:ca:6e:f1:77:09,-19.972915649414062,-87.60020446777344,115.40681457519531,0.06800024211406708,0.21631382405757904,0.19448471069335938
120017789223.63512,d4:ca:6e:f1:77:09,-20.161603927612305,-87.6228256225586,115.59835815429688,0.10601867735385895,-0.009730412624776363,0.15532207489013672
120017805893.96852,d4:ca:6e:f1:77:09,-20.15549659729004,-87.62818145751953,115.59237670898438,0.017846839502453804,0.28685206174850464,0.3226327896118164
120017822564.30193,d4:ca:6e:f1:77:09,-20.359472274780273,-87.6527328491211,115.79920959472656,0.039392370730638504,0.2641563415527344,0.2478322982788086
120017839234.63533,d4:ca:6e:f1:77:09,-19.73892593383789,-87.62562561035156,115.17620849609375,0.2896727919578552,0.5318971276283264,0.15135478973388672
120017855904.96873,d4:ca:6e:f1:77:09,-19.296688079833984,-87.5636215209961,114.72711181640625,-0.24437275528907776,0.0033886798191815615,0.35258960723876953
120017872575.30214,d4:ca:6e:f1:77:09,-19.323339462280273,-87.5661849975586,114.75492858886719,0.026089102029800415,0.00566068897023797,0.24587440490722656
120017889245.63554,d4:ca:6e:f1:77:09,-19.60074806213379,-87.58362579345703,115.0268325805664,0.10081037878990173,0.04745850712060928,0.07521915435791016
120017905915.96895,d4:ca:6e:f1:77:09,-19.076560974121094,-87.5496826171875,114.49832916259766,0.08819553256034851,-0.020431319251656532,0.37076854705810547
120017922586.30235,d4:ca:6e:f1:77:09,-19.05370330810547,-87.54537200927734,114.46160888671875,0.17678377032279968,0.6865653991699219,0.24306869506835938
120017939256.63576,d4:ca:6e:f1:77:09,-18.94044303894043,-87.53693389892578,114.31676483154297,0.15618638694286346,0.1559787392616272,0.20196247100830078
120017955926.96916,d4:ca:6e:f1:77:09,-18.846267700195312,-87.5250473022461,114.1883316040039,0.005276246927678585,-0.040573861449956894,0.2136373519897461
120017972597.30257,d4:ca:6e:f1:77:09,-18.92432403564453,-87.5440902709961,114.2497329711914,-0.17732824385166168,-0.0720648244023323,0.2943229675292969
120017989267.63597,d4:ca:6e:f1:77:09,-19.049161911010742,-87.5669937133789,114.3744888305664,-0.06905276328325272,0.2976991534233093,0.19231224060058594
120018005937.96938,d4:ca:6e:f1:77:09,-18.838552474975586,-87.55095672607422,114.1658706665039,-0.07030220329761505,0.26913776993751526,0.24228382110595703
120018022608.30278,d4:ca:6e:f1:77:09,-18.236621856689453,-87.48409271240234,113.56311798095703,-0.021240882575511932,0.02197020687162876,0.28647422790527344
120018039278.63618,d4:ca:6e:f1:77:09,-18.258501052856445,-87.49696350097656,113.58541107177734,-0.00662514753639698,0.26533111929893494,0.1873760223388672
120018055948.96959,d4:ca:6e:f1:77:09,-18.315231323242188,-87.51872253417969,113.64154815673828,0.05926714092493057,0.016427084803581238,0.22751235961914062
120018072619.303,d4:ca:6e:f1:77:09,-18.22150421142578,-87.52670288085938,113.54855346679688,0.050524208694696426,0.2568452060222626,0.2765779495239258
120018089289.6364,d4:ca:6e:f1:77:09,-17.968997955322266,-87.51619720458984,113.29690551757812,0.06311804801225662,0.16823887825012207,0.18959426879882812
120018105959.9698,d4:ca:6e:f1:77:09,-17.226306915283203,-87.44380950927734,112.55809783935547,0.045689623802900314,0.13071775436401367,0.2085590362548828
120018122630.3032,d4:ca:6e:f1:77:09,-16.959688186645508,-87.43769073486328,112.29585266113281,0.0005131857469677925,0.061225563287734985,0.27153682708740234
120018139300.63661,d4:ca:6e:f1:77:09,-16.928314208984375,-87.4522476196289,112.26677703857422,-0.02893799915909767,0.12597927451133728,0.29821014404296875
120018155970.97002,d4:ca:6e:f1:77:09,-16.617122650146484,-87.42900085449219,111.95858764648438,-0.05406778305768967,0.31856319308280945,0.20563316345214844
120018172641.30342,d4:ca:6e:f1:77:09,-15.993610382080078,-87.37147521972656,111.33538055419922,0.004683713894337416,0.08428248763084412,0.1816558837890625
120018189311.63683,d4:ca:6e:f1:77:09,-15.809362411499023,-87.38251495361328,111.15151977539062,0.056639522314071655,-0.0995926782488823,0.2240161895751953
120018205981.97023,d4:ca:6e:f1:77:09,-15.828152656555176,-87.43128204345703,111.1725845336914,0.09549792110919952,0.1624874323606491,0.24412250518798828
120018222652.30363,d4:ca:6e:f1:77:09,-15.870406150817871,-87.48020935058594,111.21904754638672,0.07709900289773941,0.13180826604366302,0.28951454162597656
120018239322.63704,d4:ca:6e:f1:77:09,-16.045747756958008,-87.53319549560547,111.39896392822266,0.018699094653129578,0.04745515435934067,0.32598400115966797
120018255992.97044,d4:ca:6e:f1:77:09,-16.695110321044922,-87.64200592041016,112.05020904541016,-0.04783982038497925,0.05558208376169205,0.27606773376464844
120018272663.30385,d4:ca:6e:f1:77:09,-17.121984481811523,-87.725830078125,112.47735595703125,-0.07896891236305237,0.18742187321186066,0.16308975219726562
120018289333.63725,d4:ca:6e:f1:77:09,-17.34044647216797,-87.78203582763672,112.6925048828125,-0.0563744381070137,0.2221028059720993,0.22330188751220703
120018306003.97066,d4:ca:6e:f1:77:09,-17.531780242919922,-87.8302993774414,112.87899017333984,0.026077033951878548,0.1842254102230072,0.31298828125
120018322674.30406,d4:ca:6e:f1:77:09,-17.650365829467773,-87.86430358886719,112.99588775634766,0.1056409403681755,0.1391821950674057,0.2913684844970703
120018339344.63747,d4:ca:6e:f1:77:09,-17.227323532104492,-87.82696533203125,112.57842254638672,0.062288589775562286,0.2542886734008789,0.31908607482910156
120018356014.97087,d4:ca:6e:f1:77:09,-16.96742820739746,-87.80670928955078,112.32334899902344,0.0023636494297534227,0.27385857701301575,0.26898765563964844
120018372685.30428,d4:ca:6e:f1:77:09,-16.694881439208984,-87.78247833251953,112.05191802978516,-0.30684730410575867,-0.03544066101312637,0.31579017639160156
120018389355.63768,d4:ca:6e:f1:77:09,-16.334129333496094,-87.72859191894531,111.67396545410156,-0.04378238692879677,0.4950074255466461,0.033478736877441406
120018406025.97108,d4:ca:6e:f1:77:09,-15.94562816619873,-87.68641662597656,111.28309631347656,0.2898696959018707,-0.020342137664556503,0.31659889221191406
120018422696.30449,d4:ca:6e:f1:77:09,-16.005565643310547,-87.69386291503906,111.34330749511719,0.09403927624225616,0.11230743676424026,0.3795509338378906
120018439366.6379,d4:ca:6e:f1:77:09,-16.091259002685547,-87.69319152832031,111.42329406738281,-0.10663802921772003,0.194287970662117,0.2517881393432617
120018456036.9713,d4:ca:6e:f1:77:09,-15.935739517211914,-87.66636657714844,111.24685668945312,0.3131219744682312,0.10077640414237976,0.10956096649169922
120018472707.3047,d4:ca:6e:f1:77:09,-15.564102172851562,-87.62216186523438,110.88004302978516,0.08593961596488953,0.34427565336227417,0.2518644332885742
120018489377.6381,d4:ca:6e:f1:77:09,-15.273893356323242,-87.57933807373047,110.59332275390625,0.017046885564923286,-0.03179650753736496,0.3205432891845703
120018506047.97151,d4:ca:6e:f1:77:09,-15.00636100769043,-87.54051208496094,110.33137512207031,0.03502894937992096,-0.044460080564022064,0.20198822021484375
120018522718.30492,d4:ca:6e:f1:77:09,-15.348387718200684,-87.5911636352539,110.6741714477539,-0.09384974092245102,0.09831754118204117,0.36826324462890625
120018539388.63832,d4:ca:6e:f1:77:09,-15.593280792236328,-87.61099243164062,110.9190444946289,-0.12508365511894226,0.3403925597667694,0.24082183837890625
120018556058.97173,d4:ca:6e:f1:77:09,-16.03284454345703,-87.66602325439453,111.35533905029297,-0.0827411413192749,0.10295945405960083,0.1580486297607422
120018572729.30513,d4:ca:6e:f1:77:09,-16.386701583862305,-87.70126342773438,111.69718933105469,-0.0012554723070934415,0.22708134353160858,0.25687408447265625
120018589399.63853,d4:ca:6e:f1:77:09,-16.919139862060547,-87.73756408691406,112.20221710205078,0.11610201746225357,0.042138226330280304,0.3695688247680664
120018606069.97194,d4:ca:6e:f1:77:09,-17.646665573120117,-87.75667572021484,112.91703033447266,0.31958597898483276,-0.30616825819015503,0.3163747787475586
120018622740.30534,d4:ca:6e:f1:77:09,-17.32533836364746,-87.73307037353516,112.70111083984375,0.9001436829566956,-0.6087523102760315,0.0884246826171875
120018639410.63875,d4:ca:6e:f1:77:09,-19.332714080810547,-87.92698669433594,114.89086151123047,0.6061521768569946,-1.8678573369979858,0.5842609405517578
120018656080.97215,d4:ca:6e:f1:77:09,-23.798198699951172,-88.3128662109375,119.86119079589844,0.2282610386610031,-2.524174928665161,0.42972373962402344
120018672751.30556,d4:ca:6e:f1:77:09,-24.58327293395996,-88.38262939453125,121.48686981201172,0.3105558156967163,-0.27945175766944885,-0.2378253936767578
120018689421.63896,d4:ca:6e:f1:77:09,-16.363845825195312,-87.7054443359375,114.16768646240234,0.17137587070465088,3.1165590286254883,0.10236167907714844
120018706091.97237,d4:ca:6e:f1:77:09,-14.556618690490723,-87.4830093383789,112.73395538330078,-0.859904944896698,5.185305118560791,0.27846717834472656
120018722762.30577,d4:ca:6e:f1:77:09,-14.877523422241211,-87.48363494873047,112.80814361572266,-0.5109274983406067,4.779287815093994,0.08631706237792969
120018739432.63918,d4:ca:6e:f1:77:09,-15.317333221435547,-87.44426727294922,112.42049407958984,-1.5135841369628906,2.219778060913086,0.06830596923828125
120018756102.97258,d4:ca:6e:f1:77:09,-15.65569019317627,-87.35862731933594,111.88179016113281,0.10556405037641525,-1.3042089939117432,0.311737060546875
120018772773.30598,d4:ca:6e:f1:77:09,-16.138029098510742,-87.37043762207031,111.8202896118164,0.09910988807678223,-3.7442688941955566,0.3195323944091797
120018789443.63939,d4:ca:6e:f1:77:09,-17.061491012573242,-87.4879150390625,112.62849426269531,0.3458006978034973,-3.47402286529541,0.2984170913696289
120018806113.9728,d4:ca:6e:f1:77:09,-16.82545280456543,-87.47059631347656,112.55030822753906,-0.14249509572982788,-0.8449057936668396,0.3551473617553711
120018822784.3062,d4:ca:6e:f1:77:09,-16.478548049926758,-87.4584732055664,112.53482818603516,0.35015830397605896,-0.5297943353652954,0.3292970657348633
120018839454.6396,d4:ca:6e:f1:77:09,-16.240758895874023,-87.44733428955078,112.64656829833984,-0.08221007883548737,0.4958116412162781,0.13428878784179688
120018856124.973,d4:ca:6e:f1:77:09,-15.865898132324219,-87.41973114013672,112.5057601928711,-0.6508494019508362,1.9698659181594849,0.17159652709960938
120018872522.8,d4:ca:6e:f1:77:09,-15.146519660949707,-87.31861114501953,111.83348083496094,0.08098846673965454,1.5239754915237427,0.1814584732055664
120018889193.1334,d4:ca:6e:f1:77:09,-14.85728931427002,-87.2802734375,111.52084350585938,0.3764919340610504,0.3432450592517853,0.22457027435302734
120018905863.46681,d4:ca:6e:f1:77:09,-15.211594581604004,-87.3508529663086,111.84587860107422,0.46715012192726135,0.04271891340613365,0.14420509338378906
120018922533.80022,d4:ca:6e:f1:77:09,-15.343740463256836,-87.39511108398438,111.9809799194336,0.5007132887840271,0.11157498508691788,0.37785911560058594
120018939204.13362,d4:ca:6e:f1:77:09,-15.327938079833984,-87.41169738769531,111.96817016601562,0.030938439071178436,0.19737401604652405,0.22940731048583984
120018955874.46703,d4:ca:6e:f1:77:09,-15.274775505065918,-87.42276000976562,111.91812896728516,0.07252682745456696,-0.07385851442813873,0.20762252807617188
120018972544.80043,d4:ca:6e:f1:77:09,-15.496872901916504,-87.46434020996094,112.14435577392578,0.020468423143029213,0.11520550400018692,0.33988380432128906
120018989215.13383,d4:ca:6e:f1:77:09,-16.581838607788086,-87.62545776367188,113.23603820800781,0.0765598937869072,-0.5527750253677368,0.2927112579345703
120019005885.46724,d4:ca:6e:f1:77:09,-16.86677360534668,-87.67426300048828,113.57345581054688,-0.047418273985385895,0.7420869469642639,0.11327838897705078
